NAME:,walk_111_5_1.csv,,,,,
EXPERIMENT TIME:,20/03/2024 17:59:55,,,,,
ACTIVITY TYPE:,Walking,,,,,
COUNT OF ACTUAL STEPS:,114,,,,,
,,,,,,
Time [sec],ACC X,ACC Y,ACC Z,GYRO X,GYRO Y,GYRO Z
0.07299805,9.52,0.14,-2.25,0.12,0.02,-0.05
0.1459961,9.57,0.14,-2.28,0.12,0.02,-0.05
0.21899414,9.54,0.13,-2.28,0.11,0.03,-0.05
0.2919922,9.54,0.13,-2.28,0.11,0.03,-0.04
0.36499023,9.56,0.16,-2.31,0.11,0.04,-0.03
0.43798828,9.56,0.18,-2.35,0.14,0.04,-0.03
0.5109863,9.51,0.2,-2.33,0.14,0.05,-0.03
0.5839844,9.53,0.16,-2.33,0.13,0.04,-0.03
0.6569824,9.56,0.18,-2.29,0.13,0.03,-0.04
0.72998047,9.55,0.19,-2.33,0.14,0.04,-0.04
0.80303955,9.56,0.16,-2.37,0.13,0.05,-0.03
0.8760376,9.53,0.14,-2.37,0.14,0.04,-0.03
0.94903564,9.53,0.18,-2.34,0.15,0.05,-0.04
1.0220337,9.51,0.21,-2.28,0.13,0.05,-0.04
1.0950317,9.53,0.15,-2.34,0.12,0.04,-0.04
1.1680298,9.54,0.1,-2.26,0.11,0.05,-0.04
1.2410278,9.54,0.13,-2.36,0.13,0.04,-0.04
1.3140259,9.51,0.21,-2.29,0.14,0.05,-0.05
1.3870239,9.53,0.27,-2.29,0.14,0.03,-0.07
1.460022,9.5,0.08,-2.28,0.1,0.01,-0.06
1.53302,9.62,0.07,-2.11,0.1,0.01,-0.01
1.6060181,9.66,0.23,-2.01,0.16,0.09,0.02
1.6790161,9.68,0.52,-1.8,0.13,0.19,0.01
1.7520142,9.47,0.61,-1.69,0.04,0.28,0.01
1.8250122,9.29,0.75,-1.46,0.03,0.26,-0.05
1.8980103,9.6,0.84,-0.53,0.01,0.23,-0.01
1.9710083,9.49,0.6,-0.95,0.13,0.18,0.12
2.0440063,9.21,-0.37,-2.18,0.24,0.23,0.11
2.1170044,9.81,-1.44,-1.05,0.14,0.01,0.15
2.1900024,10.01,-0.87,-0.31,0.22,-0.29,0.16
2.2630005,8.58,-0.38,-0.44,0.25,0.01,0.06
2.3359985,8.68,-1.18,-0.03,-0.23,-0.15,0.06
2.4089966,9.54,-1.54,0.51,-0.12,0.02,-0.14
2.4819946,10.17,-1.62,0.13,-0.13,0.15,-0.15
2.5549927,11.81,-1.93,-0.08,-0.18,0.07,-0.09
2.6279907,13.06,-2.68,-3.31,-0.35,-0.17,0.31
2.7009888,8.21,0.31,-4.57,1.26,0.63,-0.18
2.7739868,7.86,1.77,-1.13,1.17,0.16,-0.36
2.8469849,7.97,-0.92,-0.98,0.25,-0.12,-0.08
2.919983,7.83,0.19,-0.41,0.76,0.21,-0.16
2.992981,8.67,0.24,0.05,0.63,-0.13,0
3.065979,11.15,-0.59,-0.41,0.39,-0.23,0.21
3.139038,12.13,0.72,1.54,0.75,0.11,0.12
3.2120361,11.79,-1.1,-5.33,0.01,0.06,0.12
3.2850342,7.47,-1.44,-2.51,0.03,0.41,0.37
3.3580322,9.92,-0.88,-2.48,0.22,-0.54,0.15
3.4310303,6.14,-0.64,-1.49,0.44,0.28,0.06
3.5040283,8.72,-1.99,-1.31,-0.38,-0.16,0.01
3.5770264,10.23,-2.26,-0.05,-0.14,0,-0.07
3.6500244,10.58,-2.45,0.54,-0.17,0.28,0.08
3.7230225,11.96,-1.51,-3.35,-0.55,0.32,0.14
3.7960205,10.41,-0.44,-4.08,1.13,0.52,-0.14
3.8690186,9.39,-1.06,-2.53,-0.02,-0.39,0.07
3.9420166,6.09,-2.26,-2.02,0.46,0.09,0.18
4.0150146,7.02,0.45,-0.65,1.11,0.25,-0.41
4.0880127,9.28,-0.12,0.33,0.56,-0.09,-0.21
4.1610107,11.52,-1.31,0.8,-0.03,-0.14,0.15
4.234009,12.99,1.2,1.85,-0.11,0.11,0.01
4.307007,10.88,-2,-6.67,-0.05,0.32,-0.09
4.380005,9.41,-1.2,-2.73,-0.49,-0.12,-0.09
4.453003,9.21,0.37,-1.79,-0.68,-0.1,0.35
4.526001,4.82,-1.78,-1.77,-0.94,0.58,0.04
4.598999,8.15,-2.91,-1.06,-0.91,0.05,0.01
4.671997,10.96,-2.43,0.33,-0.28,0.03,-0.28
4.744995,11.47,-3.24,1.33,-0.4,0.35,0.13
4.817993,12.88,-1.81,-5.28,-0.45,-0.04,0.25
4.890991,9.13,0.72,-2.75,1.26,0.58,-0.33
4.9639893,9.04,-0.22,-2.31,0.07,-0.35,-0.31
5.0369873,5.8,-1.77,-1.49,0.25,-0.02,0.36
5.1099854,7.49,-0.18,-1.05,0.74,0,-0.3
5.1829834,9.51,0.15,1.15,0.64,-0.23,-0.26
5.2559814,11.85,-0.91,0.99,0.02,-0.23,0.05
5.3289795,13.02,-0.22,-1.22,-0.32,-0.07,0.12
5.4020386,9.71,-2.23,-5.33,0.63,0.49,-0.22
5.4750366,10.32,-1.22,-3.15,-0.03,-0.64,0.06
5.5480347,6.56,0.03,-2.14,0.72,0.16,-0.13
5.6210327,6.37,-0.69,-1.82,-0.31,-0.13,-0.21
5.694031,9.45,-1.82,-1.65,-0.42,-0.28,-0.01
5.767029,11.41,-1.65,0.3,-0.18,0.25,-0.17
5.840027,12.28,-1.09,-0.12,-0.91,0.67,0.45
5.913025,10.96,-1.01,-7.29,0.15,0.52,0
5.986023,9.3,1.38,-2.3,0.13,-0.23,-0.43
6.059021,7.17,-1.71,-2.42,-0.52,-0.13,0.29
6.132019,6.05,-0.34,-1.7,0.3,0.09,-0.04
6.205017,9.07,0.57,0.05,0.79,-0.15,-0.21
6.278015,10.77,-1.18,-0.61,0.04,-0.19,0.18
6.351013,12.76,0.55,2.65,0.33,0.31,0.01
6.424011,12.42,-1.29,-7.07,-0.24,-0.07,-0.1
6.4970093,7.73,-1.77,-3.32,0.16,0.36,-0.14
6.5700073,9.43,-0.93,-2.8,0.01,-0.24,0.11
6.6430054,5.71,0.01,-1.74,0.23,0.13,-0.26
6.7160034,8.19,-1.28,-1.92,-0.39,-0.22,-0.18
6.7890015,10.66,-1.47,-0.28,-0.46,-0.1,-0.14
6.8619995,11.76,-1.67,0.18,-0.65,0.42,0.02
6.9349976,12.8,-2.1,-7.03,-0.63,-0.1,0.34
7.0079956,8.75,1.62,-2.67,0.8,0.53,-0.33
7.0809937,8.09,-0.94,-3.3,-0.27,-0.24,0.05
7.1539917,5.9,-1.33,-2.13,0.24,0.09,0.11
7.2269897,8.59,0.82,-0.65,1.01,0.01,-0.3
7.299988,10.38,-0.13,0.05,0.53,-0.21,-0.09
7.372986,11.65,-0.07,1.67,0.23,0.33,0.08
7.445984,11.91,-0.52,-6.15,-0.25,-0.06,-0.38
7.518982,10.01,-1.62,-3.76,0.38,0.67,-0.43
7.59198,9.6,0.46,-2.77,0.35,0.02,0.01
7.665039,6.11,0.54,-1.72,0.17,0.12,-0.33
7.738037,7.56,-0.52,-1.31,-0.24,-0.09,-0.14
7.811035,9.62,-0.43,-0.41,-0.41,-0.11,-0.16
7.884033,11.32,-0.55,1.14,-0.59,0.08,-0.05
7.9570312,13.59,-0.17,-4.56,-0.89,-0.21,0.24
8.030029,8.74,1.43,-4,0.35,0.27,-0.06
8.103027,9.19,0.69,-2.66,-0.06,-0.42,-0.29
8.176025,6.62,-0.91,-2.2,0.04,-0.01,0.04
8.249023,7.13,1.01,-1,0.5,0.05,-0.25
8.3220215,10.04,0.69,-0.14,0.69,0.03,-0.23
8.39502,11.66,0.52,0.07,0.27,0.17,0.18
8.468018,13.08,0.92,-1.69,0.34,0.1,-0.13
8.541016,9.22,0.44,-4.92,0.61,0.72,-0.19
8.614014,10.39,-0.11,-3.18,-0.05,-0.71,-0.09
8.687012,7.65,1.13,-2.15,0.3,-0.02,-0.01
8.76001,6.73,0.12,-1.83,-0.14,-0.1,-0.04
8.833008,9.22,-0.27,-1,-0.43,-0.09,0.03
8.906006,10.75,-0.35,-0.35,-0.45,0.22,-0.03
8.979004,13.17,-0.69,-0.63,-0.82,0.42,0.42
9.052002,9.72,0.85,-5.53,-0.21,0.23,0.35
9.125,9.17,1.67,-2.77,0.38,-0.11,-0.19
9.197998,8.13,-1.33,-2.07,-0.51,-0.02,0.13
9.270996,5.54,-0.25,-1.39,0.3,0.04,-0.07
9.343994,8.88,1.15,-0.69,1.07,-0.13,-0.51
9.416992,11,0.31,-0.1,0.57,0.08,0.05
9.48999,12.76,1.26,1.59,0.44,0.22,0.12
9.562988,12.62,0.01,-6.19,0.45,-0.24,-0.4
9.635986,8.05,-0.93,-3.22,0.28,0.47,0.03
9.708984,9.96,0.25,-3.26,0.35,-0.45,-0.03
9.781982,5.64,0.8,-1.83,0.65,0.27,-0.08
9.85498,7.75,-0.48,-1.71,-0.21,-0.07,0.01
9.92804,10.06,-0.46,0.01,-0.28,-0.03,-0.07
10.001038,11.29,-0.76,0.58,-0.25,0.3,-0.16
10.074036,13.49,-0.82,-1.82,-0.36,0.16,0.12
10.147034,9.46,0.67,-4.52,0.35,0.55,0.22
10.220032,9.23,0.54,-2.98,0.38,-0.08,-0.13
10.29303,6.63,-1.47,-1.94,0.29,0.2,0.14
10.366028,6.34,0.39,-1.12,0.79,-0.18,-0.21
10.439026,9.85,0.7,-0.94,1.03,-0.4,-0.15
10.512024,11.23,-0.41,0.01,0.66,0.09,0.29
10.585022,11.84,0.71,1.63,0.98,0.42,-0.05
10.65802,11.85,-1.58,-6.39,0.94,-0.27,-0.46
10.731018,9.73,-1.9,-3.2,0.65,0.09,-0.16
10.804016,8.24,0.24,-2.79,1.01,-0.13,-0.07
10.877014,6.07,0.2,-1.56,0.94,0.11,-0.25
10.950012,9.02,-1.15,-1.26,0.03,-0.22,-0.03
11.02301,9.61,-0.77,0.14,0.06,0.07,-0.22
11.096008,11.43,-0.68,0.87,0.1,0.11,-0.45
11.169006,13.81,-1.44,-3.37,-0.19,0.13,0.04
11.242004,9.39,0.91,-3.84,0.86,0.67,0.12
11.315002,9.41,-0.67,-3.04,0.6,-0.03,-0.05
11.3880005,6.46,-0.61,-2.18,1,0.01,-0.01
11.460999,7.48,1.07,-1.77,1.58,-0.08,-0.23
11.533997,9.25,0.59,-1,1.27,-0.09,-0.07
11.606995,10.7,-0.01,-0.35,0.8,-0.03,0.29
11.679993,11.86,0.94,1.54,0.89,0.4,0.36
11.752991,12.28,-0.26,-5.84,0.72,-0.01,0.06
11.825989,8.94,-0.12,-3.19,0.35,0.49,0.26
11.898987,9.54,1.48,-2.34,0.15,-0.26,0.1
11.971985,6,0.84,-1.93,-0.4,0.17,0.04
12.044983,7.96,-0.63,-1.79,-1.24,-0.29,0.06
12.117981,9.68,0.06,-0.69,-0.78,-0.2,-0.14
12.190979,11.26,-0.35,-0.36,-1.09,0.13,-0.07
12.264038,12.71,0.47,-1.75,-1.49,0.26,0.09
12.337036,9.94,0.93,-5.51,-0.47,0.3,0.16
12.410034,9.47,2.52,-3.16,-0.95,-0.22,-0.24
12.483032,7.48,-1.57,-2.62,-1.5,-0.25,0.23
12.55603,6.33,0.24,-1.48,-0.23,0.11,-0.19
12.629028,9.68,1.37,-1,0.08,-0.22,-0.06
12.702026,10.77,0.63,-0.39,-0.34,0.08,0.41
12.775024,10.92,1.43,1.32,-0.11,0.33,0.26
12.848022,12.74,1.56,-5.37,-0.44,-0.01,-0.02
12.9210205,8.98,0.99,-3.03,-0.18,0.79,-0.24
12.994019,10.35,1.19,-3.63,-1.23,-0.1,0.18
13.067017,7.27,1.46,-2.74,-1.41,0.28,0.14
13.140015,8.02,0.07,-2.82,-2,-0.15,0
13.213013,8.36,-1.01,-2.64,-1.9,-0.15,0.04
13.286011,10.5,-0.04,-0.69,-1.08,0,-0.18
13.359009,11.26,0.33,0.48,-1.08,0.29,-0.03
13.432007,12.1,1.93,-3.13,-1.43,0.16,-0.19
13.505005,8.55,1.85,-5.01,-0.61,0.53,-0.06
13.578003,10.1,2.06,-2.79,-1.55,-0.44,-0.47
13.651001,7.49,-0.83,-2.43,-1.74,-0.3,0.39
13.723999,6.86,1.07,-1.28,-0.33,-0.03,-0.13
13.796997,9.64,1.53,-0.92,-0.19,-0.33,0.11
13.869995,11,0.9,-0.48,-0.4,0.01,0.51
13.942993,11.31,1.9,0.69,-0.15,0.5,0.3
14.015991,11.47,1.54,-6.3,0.23,0.39,-0.18
14.088989,8.94,2.41,-2.67,-0.51,0.43,-0.21
14.161987,10.23,1.58,-2.85,-1.3,0,0.2
14.234985,6.88,0.63,-2.73,-1.63,0.18,0.1
14.307983,8.47,-0.1,-2.56,-1.52,-0.02,-0.01
14.380981,9.15,-0.3,-1.34,-1.39,-0.2,0.05
14.4539795,10.62,0.52,-0.03,-1.08,-0.1,-0.02
14.527039,10.57,1.48,0.67,-1.29,0.29,0.04
14.600037,12.33,1.52,-5.73,-1.33,-0.05,-0.11
14.673035,7.8,3.01,-3.34,-0.89,0.39,-0.11
14.746033,10.17,0.78,-2.98,-1.83,-0.45,-0.1
14.819031,6.85,-0.03,-1.79,-1.17,0.05,0.09
14.892029,7.8,1.39,-1.5,-0.65,-0.09,-0.16
14.965027,9.55,0.66,-0.96,-0.55,-0.23,0.08
15.038025,11.4,0.53,-0.11,-0.4,0.03,0.34
15.111023,10.82,1.86,0.86,-0.18,0.55,0.34
15.184021,10.87,1.91,-6.13,-0.42,0.02,0.03
15.257019,9.13,1.41,-2.67,-1.22,0.24,-0.02
15.330017,10.37,1.36,-3.25,-1.77,-0.31,0.52
15.403015,6.49,0.27,-3.39,-2.34,-0.1,0.38
15.476013,7.73,-0.54,-3.13,-2.23,-0.34,0.26
15.549011,8.59,-1.22,-2.93,-2.49,-0.67,0.22
15.622009,9.37,-2.33,-3.7,-2.47,-0.81,0.25
15.695007,10.09,-3.33,-3.23,-1.77,-0.44,0.2
15.768005,13.62,-3.22,-5.86,-1.12,-0.41,-0.14
15.841003,11.09,0.35,-3.64,0.6,0.54,0.39
15.914001,7.65,3.5,-2.61,1.44,1.01,-0.89
15.9869995,8.15,1.94,-2.94,0.59,0.32,-0.28
16.059998,7.56,0.67,-3.01,0.63,0.25,-0.4
16.132996,8.98,1.5,-2.1,1.18,0.07,-0.29
16.205994,9.51,0.64,-1.6,0.89,0.12,-0.03
16.278992,9.89,0.13,-0.9,1.23,0.36,-0.01
16.35199,11.91,0.8,0.28,1.16,0.5,0.22
16.424988,11.33,3.2,-4.58,0.63,0.36,0.14
16.497986,9.19,0.62,-5,0.88,0.58,-0.4
16.570984,9.49,1.79,-3.11,-0.12,-0.11,0.02
16.643982,5.59,2.18,-2.2,-0.58,0.33,0.02
16.71698,8.52,0.29,-2.15,-1.31,-0.24,-0.09
16.79004,9.6,-1.41,-1.9,-1.61,-0.4,0.27
16.863037,10.25,0.25,-0.73,-0.78,0.01,-0.19
16.936035,11.79,0.72,0.7,-0.8,0.26,-0.11
17.009033,12.99,0.66,-5.75,-1.36,-0.16,0.2
17.082031,7.43,2.72,-3.77,-0.11,0.6,-0.03
17.15503,9.11,2.12,-2.97,-0.56,-0.26,-0.4
17.228027,6.62,-0.73,-2.05,-1.08,-0.17,0.35
17.301025,7.5,1.35,-1.37,0.19,0.03,-0.33
17.374023,9.81,1.71,-0.89,0.64,-0.16,-0.12
17.447021,11.02,0.6,-0.9,0.02,-0.04,0.33
17.52002,11.76,2.4,1.77,0.81,0.52,0.06
17.593018,11.93,0.29,-6.62,0.41,0.07,-0.23
17.666016,9.03,-1.27,-4.01,0.39,0.17,-0.34
17.739014,9.07,-0.27,-3.82,0.95,-0.17,0.18
17.812012,5.5,0.67,-1.87,1.13,0.14,-0.17
17.88501,8.75,-0.35,-2.54,0.28,-0.41,-0.13
17.958008,10.06,0.22,-0.71,0.35,-0.1,-0.18
18.031006,11.09,0.18,-0.42,-0.12,0.16,-0.26
18.104004,13.13,-0.67,-2.12,-0.6,0.18,0.16
18.177002,9.24,-0.06,-5.98,0.51,0.46,0.11
18.25,9.39,2.09,-3.35,1.01,0.1,-0.5
18.322998,8.19,-0.76,-2.74,-0.19,-0.34,0.18
18.395996,5.9,0.01,-2.2,0.93,0.01,-0.13
18.468994,8.57,1.69,-1.24,1.64,0.04,-0.26
18.541992,10.92,1.17,-1.39,1.05,-0.04,0.01
18.61499,12.38,2.81,1.54,0.7,0.28,0.11
18.687988,12.55,0.24,-6.21,-0.07,-0.2,-0.02
18.760986,8.38,-2.11,-4.31,0.36,0.41,-0.4
18.833984,9.72,-0.16,-4.16,0.9,-0.22,0.08
18.906982,5.21,1.51,-1.77,0.98,0.38,-0.15
18.97998,7.97,-0.1,-2.16,-0.26,-0.28,-0.13
19.05304,11.04,-0.29,-0.9,-0.43,-0.22,0.05
19.126038,11.26,-0.09,-0.04,-0.24,0.33,-0.21
19.199036,12.79,-0.65,-4.56,-1.02,0.19,0.4
19.272034,8.06,1.11,-4.43,0.68,0.71,0.22
19.345032,9.77,0.56,-3.73,0.37,-0.41,0.03
19.41803,6.81,-1.75,-2.54,0.24,0.03,0.38
19.491028,7,0.9,-1.74,1.27,0.07,-0.33
19.564026,9.68,1.65,-0.41,1.22,-0.16,-0.12
19.637024,10.9,-0.41,-0.78,0.13,0.03,0.13
19.710022,13.68,1.49,0.15,0.45,0.06,-0.03
19.78302,10,-1.11,-6.11,0.49,0.23,-0.29
19.856018,9.17,-1.39,-4.08,0.03,-0.22,0.02
19.929016,8.09,0.45,-2.89,1.11,0.16,-0.12
20.002014,5.88,0.55,-2.05,0.71,0.2,-0.32
20.075012,9.46,-0.37,-1.67,-0.36,-0.33,-0.16
20.14801,10.68,-0.03,-0.16,-0.32,-0.01,-0.13
20.221008,11.92,-0.16,-0.46,-0.57,0.57,-0.01
20.294006,11.57,-0.52,-6.79,-0.48,-0.1,0.34
20.367004,9.34,2.04,-3.02,0.67,0.25,-0.23
20.440002,8.42,-0.86,-3.53,-0.47,-0.43,0.23
20.513,5.39,-0.38,-2.37,0.6,0.02,-0.02
20.585999,8.73,1.75,-1.28,1.51,-0.1,-0.32
20.658997,10.62,1.01,-0.57,0.67,-0.12,-0.03
20.731995,11.86,0.56,0.75,0.17,0.23,0.22
20.804993,12.93,0.38,-5.52,-0.11,-0.29,-0.05
20.87799,8.43,-0.93,-4.24,0.42,0.62,-0.36
20.950989,9.69,-0.18,-4.31,0.4,-0.32,0.13
21.023987,5.5,1.14,-1.9,0.98,0.31,-0.23
21.096985,7.84,-0.5,-2.76,-0.61,-0.36,-0.17
21.169983,10.31,-0.97,-1.35,-0.56,-0.24,-0.03
21.242981,11.28,-0.29,-0.35,-0.11,0.32,-0.18
21.315979,13.1,0.12,-3.86,-0.93,0.28,0.32
21.389038,8.5,0.85,-5.18,0.54,0.7,0.12
21.462036,9.9,1.73,-3.45,0.06,-0.21,-0.18
21.535034,7.33,-1.43,-2.78,-0.53,-0.22,0.33
21.608032,6.28,0.42,-1.94,0.89,0.12,-0.29
21.68103,9.32,1.54,-0.59,1.15,-0.08,-0.23
21.754028,10.8,0.29,-1.03,0.23,0,0.12
21.827026,12.77,1.44,1.67,0.32,0.36,0.07
21.900024,11.27,-0.84,-7.22,0.31,0.06,-0.24
21.973022,9.3,-0.76,-4.1,0.37,0.15,-0.28
22.04602,8.68,0.61,-3.16,0.71,0.12,0.1
22.119019,5.54,0.96,-1.76,0.35,0.18,-0.12
22.192017,8.98,-0.65,-1.8,-0.64,-0.33,0
22.265015,10.39,-0.67,-0.17,-0.33,-0.01,-0.11
22.338013,11.5,-0.53,0.35,-0.3,0.51,0.1
22.41101,12.87,-0.16,-5.68,-0.65,0.02,0.24
22.484009,8.62,2.15,-3.09,0.69,0.27,-0.11
22.557007,9.43,-0.13,-3.51,-0.52,-0.54,-0.06
22.630005,5.67,-1.65,-2.58,-0.18,-0.19,0.28
22.703003,7.6,1.01,-1.27,1.16,0.13,-0.37
22.776001,10.37,1.14,-0.67,1.02,-0.14,-0.08
22.848999,11.47,0.02,-0.55,0.23,0.07,0.14
22.921997,13.39,1.12,-2.83,0.2,-0.07,-0.02
22.994995,8.4,-0.84,-5.15,0.6,0.69,-0.38
23.067993,10.57,0.08,-4.03,0.2,-0.42,-0.04
23.140991,6.83,1.09,-2.28,0.7,0.35,-0.05
23.21399,6.56,-0.16,-2.18,-0.62,-0.16,-0.09
23.286987,9.62,-0.84,-1.71,-0.56,-0.15,-0.17
23.359985,11.36,0.08,-0.26,-0.32,0.19,-0.23
23.432983,12.88,-0.51,-1.25,-1.14,0.54,0.31
23.505981,9.51,0.13,-5.91,0,0.44,0.18
23.57898,9.49,2.84,-2.56,0.57,0.05,-0.4
23.652039,8.51,-1.08,-2.72,-0.7,-0.2,0.16
23.725037,5.4,-0.52,-2.02,0.47,0.19,-0.11
23.798035,8.5,1.97,-0.42,1.42,0.21,-0.28
23.871033,10.38,1.54,-0.34,0.69,-0.21,0.1
23.94403,12.2,1.35,2.16,0.29,0.06,0.14
24.017029,12.84,0.65,-4.69,-0.19,-0.09,0.08
24.090027,9.44,-1.18,-4.32,0.64,0.49,-0.41
24.163025,10.07,0.95,-3.07,0.77,0.04,-0.16
24.236023,5.3,1.31,-2.07,0.71,0.42,-0.15
24.309021,7.54,0.31,-1.8,-0.48,-0.33,-0.25
24.382019,10.11,-0.63,-1.39,-0.43,-0.48,-0.08
24.455017,10.73,0.39,0.16,-0.06,0,-0.25
24.528015,11.58,-0.02,-0.42,-0.54,0.34,0.01
24.601013,10.73,-0.54,-6.38,-0.15,-0.02,0.42
24.674011,9.93,2.14,-2.72,1.04,0.32,-0.19
24.74701,8.19,-1.67,-3.25,-0.16,-0.23,0.36
24.820007,6.21,-0.3,-2.24,1.45,0.18,-0.11
24.893005,8.59,1.47,-1.24,1.83,0.09,-0.27
24.966003,10.17,0.69,-0.28,1.04,-0.01,-0.08
25.039001,12,0.81,1.93,0.96,0.13,0.05
25.112,12.98,0.18,-4.88,0.08,-0.38,0.11
25.184998,8.51,-1.38,-4.58,0.89,0.51,-0.37
25.257996,10.02,-0.09,-3.56,1.02,-0.29,0.08
25.330994,6.26,0.9,-1.82,1.27,0.35,-0.2
25.403992,7.53,-0.12,-1.97,0.1,-0.21,-0.14
25.47699,9.6,-0.49,-1.24,-0.06,-0.34,-0.12
25.549988,11.11,-0.11,-0.26,-0.2,-0.04,-0.24
25.622986,11.9,-0.69,-0.63,-0.71,0.38,0.22
25.695984,10.89,0.46,-6.15,-0.05,0.2,0.17
25.768982,9.46,3.52,-3.06,0.75,0.48,-0.4
25.84198,8.71,0.96,-3.11,-0.43,-0.05,0.05
25.91504,6.46,0.18,-1.92,-0.23,-0.14,0.16
25.988037,8.22,1.62,-1.05,0.48,-0.06,0.03
26.061035,9.27,1.24,-0.69,-0.02,0,0.31
26.134033,10.63,0.61,0.26,-0.02,0.2,0.44
26.207031,12.76,2.32,-1.05,-0.32,0.21,0.32
26.28003,10.74,1.23,-5.57,0.18,0.7,-0.22
26.353027,9.7,1.94,-3.31,-1.21,0.03,-0.07
26.426025,9.2,1.78,-3.34,-1.69,0.13,0.17
26.499023,7.27,0.19,-3.17,-2.47,-0.03,0.09
26.572021,8.81,0.67,-2.94,-2.52,-0.2,-0.05
26.64502,8.33,1.24,-3.11,-2.95,-0.13,-0.07
26.718018,8.71,0.63,-4.08,-3.33,-0.02,-0.17
26.791016,9.47,1.56,-6.32,-3.82,-0.42,-0.33
26.864014,15.23,4.27,-3.75,-2.36,-1.23,-0.71
26.937012,8.64,3.16,-3.09,-3.11,-0.62,0.59
27.01001,4.79,1.77,-1.68,-2.79,-0.13,-0.01
27.083008,9.85,2.54,-2.33,-1.49,-0.63,-0.02
27.156006,9.93,4.69,-1.54,-1,-0.21,0.25
27.229004,7.59,3.73,-1.18,-1.43,-0.25,0.39
27.302002,10.07,3.09,0.01,-1.08,-0.36,0.23
27.375,11.87,3.77,-5.56,-0.17,-0.26,-0.06
27.447998,8.71,1.82,-5.37,-0.91,0.04,-0.05
27.520996,10.55,1.99,-3.16,-1.45,-0.57,-0.09
27.593994,7.57,0.63,-3.29,-1.63,-0.19,0.74
27.666992,8.59,0.65,-1.9,-1.39,0.17,0.72
27.73999,7.94,0.97,-1.74,-0.79,0.24,0.52
27.812988,9.22,1.69,-0.63,-0.77,0.29,0.14
27.885986,11.06,1.82,-0.03,-0.89,0.2,0.01
27.958984,13.27,0.76,-3.64,-1.65,0,0.29
28.031982,9.41,2.43,-4.56,0.17,0.44,0.28
28.10498,8.77,4.87,-2.29,0.36,0.17,-0.34
28.17804,6.8,0.16,-2.33,-0.88,-0.09,0.23
28.251038,6.13,1.01,-1.73,0.11,0.07,0.04
28.324036,8.97,2.84,-0.43,0.75,-0.15,-0.13
28.397034,10.57,2.25,0.01,0.11,-0.1,0.26
28.470032,11.96,1.92,1.62,0.2,0.23,0.36
28.54303,12.23,2.37,-4.53,0.12,0.27,0.09
28.616028,9.3,0.2,-3.59,0.24,0.77,-0.27
28.689026,10.32,1.32,-2.8,0.17,-0.39,0.05
28.762024,5.75,1.61,-2.2,0.1,0.23,0.02
28.835022,7.01,0.78,-1.48,-0.6,-0.19,-0.25
28.90802,9.38,-0.12,-1.45,-1.01,-0.29,-0.08
28.981018,10.69,0.9,0.26,-0.28,0.02,-0.31
29.054016,11.93,0.2,0.92,-0.87,0.29,0.09
29.127014,11.95,1.6,-5.9,-0.55,0.07,0.3
29.200012,9.58,2.85,-2.99,0.57,0.42,-0.43
29.27301,8.6,1.02,-2.28,-0.49,-0.07,0.02
29.346008,5.13,-0.64,-1.85,0.17,0.11,0.08
29.419006,7.54,2.3,-0.7,0.99,0.11,-0.27
29.492004,10.4,1.68,0.15,0.73,-0.25,0.08
29.565002,11.85,1.97,1.26,0.62,0.02,0.16
29.638,12.52,2.9,-1.44,0.25,-0.01,0.13
29.710999,9.55,-1.3,-4.61,0.33,0.47,-0.2
29.783997,10.75,0.93,-3.64,0.73,-0.13,0.02
29.856995,5.74,1.52,-1.35,0.8,0.34,0.13
29.929993,6.13,1.16,-1.8,-0.13,-0.11,-0.2
30.00299,10.04,0.04,-0.69,-0.82,-0.55,-0.13
30.075989,11.21,-0.09,0.41,-0.7,-0.12,-0.12
30.148987,12.83,0.79,-0.16,-0.85,0.33,0.1
30.221985,11.76,0.51,-6.5,-0.29,0.5,0.13
30.294983,8.74,3.5,-1.77,0.57,0.52,-0.23
30.367981,7.45,-0.16,-2.18,-0.12,-0.01,0.09
30.440979,5.86,-0.28,-1.48,0.47,-0.09,0.04
30.514038,8.77,1.96,0.21,1.31,-0.13,-0.07
30.587036,9.9,1.96,0.72,0.76,-0.1,0.05
30.660034,12.25,1.39,2.55,0.33,-0.04,0.12
30.733032,12.55,2.14,-3.77,-0.2,-0.13,0.07
30.80603,8.74,-0.39,-3.39,0.32,0.83,-0.27
30.879028,10.95,1.38,-2.32,0.66,-0.7,0.01
30.952026,5.44,1.6,-1.63,0.46,0.5,0.14
31.025024,6.29,0.55,-1.74,-0.64,-0.35,-0.2
31.098022,10.01,-0.35,-1.01,-0.97,-0.57,-0.08
31.17102,11.61,-0.3,0.41,-0.47,-0.12,-0.02
31.244019,12.72,0.69,-0.41,-0.99,0.33,0.49
31.317017,10.45,0.91,-6.58,0.11,0.48,0.1
31.390015,9.51,3.79,-2.18,0.69,-0.02,-0.42
31.463013,7.97,-0.25,-2.43,-0.51,-0.3,0.13
31.53601,5.38,-0.01,-1.42,0.39,0.23,-0.11
31.609009,8.34,2.56,0.27,0.92,0.04,-0.25
31.682007,11.04,1.78,0.01,0.38,-0.22,0.15
31.755005,12.06,2.97,2.62,0.11,0.14,0.13
31.828003,13.16,0.63,-6.52,0.09,-0.15,-0.23
31.901001,7.93,-0.2,-3.17,-0.06,0.22,-0.24
31.973999,9.89,1.05,-2.92,0.38,-0.34,-0.04
32.046997,5.1,1.11,-1.78,0.07,0.08,-0.09
32.119995,7.78,0.18,-2.1,-0.55,-0.43,-0.03
32.192993,10.26,0.22,-0.95,-0.06,-0.07,-0.12
32.26599,12,0.77,0.24,-0.31,0.47,-0.08
32.33899,13.32,0.86,-5.57,-0.64,0.21,0.2
32.411987,8.91,2.22,-3.18,0.29,0.53,0.17
32.484985,9.13,1.55,-3.14,0.35,-0.09,-0.14
32.557983,5.87,-0.2,-1.71,0.3,0.15,0.14
32.63098,7.52,1.1,-1.07,0.56,-0.26,-0.07
32.70398,9.86,1.51,-0.14,0.78,-0.14,-0.05
32.77704,10.77,0.49,0.4,0.46,0.25,0.3
32.850037,14.34,0.97,-2.73,0.6,-0.33,-0.22
32.923035,9.28,0.27,-4.27,0.96,0.86,-0.21
32.996033,9.94,0.46,-3.45,-0.05,-0.36,0.05
33.06903,5.82,1.56,-1.77,0.39,0.2,-0.1
33.14203,6.96,0.29,-1.9,-0.14,0,0
33.215027,10.07,-0.09,-0.3,-0.64,-0.31,0.03
33.288025,11.16,0.06,0.22,-0.47,0.24,-0.02
33.361023,12.25,0.47,-2.01,-0.88,0.1,-0.02
33.43402,10.15,1.66,-4.93,0.18,0.25,0.28
33.50702,9.34,1.46,-3.57,0.18,-0.17,-0.23
33.580017,6.22,-0.58,-2.01,-0.01,0.03,0.26
33.653015,6.79,0.73,-0.99,0.22,-0.19,-0.01
33.726013,9.95,1.54,-0.78,0.46,-0.24,-0.01
33.79901,10.86,0.37,0.03,0.14,0.14,0.33
33.87201,13.95,1.18,-1.35,0.2,-0.04,-0.18
33.945007,9.74,0.03,-5.43,0.72,0.38,-0.32
34.018005,9.9,-0.31,-3.54,0.01,-0.3,-0.12
34.091003,7.15,1.47,-2.11,0.25,0.02,-0.05
34.164,6.35,0.39,-2.07,0.1,0.06,-0.11
34.237,9.26,-0.31,-1.34,-0.39,-0.13,-0.06
34.309998,11.12,0.24,0.01,-0.31,0.16,-0.15
34.382996,12.64,0.18,-0.46,-0.87,0.51,-0.13
34.455994,10.24,0.88,-5.52,-0.05,0.15,0.08
34.52899,10.14,1.68,-3.42,0.31,-0.02,-0.34
34.60199,8,-0.63,-2.54,-0.36,-0.12,0.09
34.674988,5.79,-0.01,-1.63,0.26,-0.15,-0.06
34.747986,7.8,1.68,-1.92,0.91,-0.14,-0.25
34.820984,10.47,1.26,-0.48,0.81,0.22,0.01
34.893982,12.41,1.43,1.44,0.4,0.31,0.15
34.96698,13.12,1.28,-6.46,0.35,-0.18,-0.13
35.04004,8.06,-0.65,-3.43,0.62,0.54,-0.03
35.113037,9.95,0.24,-3.48,0.46,-0.23,-0.06
35.186035,6.45,1.95,-2.12,0.7,0.22,-0.03
35.259033,7.49,0.1,-1.77,0.2,-0.02,-0.08
35.33203,9.81,-0.07,-0.47,-0.22,-0.1,-0.14
35.40503,11.29,-0.25,0.58,-0.12,0.27,-0.25
35.478027,13.58,0.46,-3.33,-0.47,0.1,-0.1
35.551025,9.12,1.2,-4.28,0.29,0.51,0.11
35.624023,9.41,0.98,-3.13,0.46,-0.05,-0.21
35.69702,7.52,-0.82,-1.95,0.31,-0.11,0.1
35.77002,7.06,0.59,-1.73,0.96,-0.14,-0.2
35.843018,8.77,1.51,-0.93,1.19,-0.01,-0.19
35.916016,10,0.66,-0.02,1.01,0.21,-0.04
35.989014,12.32,1.09,1.33,0.96,0.41,-0.1
36.06201,12.3,-0.11,-6.9,1.05,-0.05,-0.12
36.13501,9.75,-0.75,-3.29,1.05,0.1,-0.11
36.208008,8.52,0.76,-3.05,1.14,-0.04,0.02
36.281006,5.62,1.27,-1.91,1.03,0.09,0.07
36.354004,8.77,-0.11,-1.53,0.32,-0.19,0.19
36.427002,10.49,0.11,-0.07,0.04,-0.15,-0.06
36.5,11.33,-0.42,0.5,-0.11,0.19,-0.05
36.572998,11.81,-0.39,-2.19,-0.84,0.25,0.27
36.645996,9.77,1.35,-4.81,0.44,0.44,0.33
36.718994,9.49,2.6,-3.11,0.67,-0.19,-0.33
36.791992,7.67,0.03,-2.47,-0.23,-0.15,0.08
36.86499,6.68,0.33,-1.61,-0.29,-0.21,0.05
36.93799,8.58,1.54,-1.42,0.24,-0.24,0.01
37.010986,10.03,1.01,-0.56,0.09,0.13,0.22
37.083984,11.92,1.05,0.63,0.08,0.5,0.4
37.156982,13.74,0.24,-4.32,0.47,0.19,-0.17
37.22998,8.75,0.54,-2.77,-0.24,0.71,-0.11
37.30304,9.77,2.12,-2.9,-1.19,0,-0.16
37.376038,6.28,1.12,-2.58,-1.36,0.18,0.1
37.449036,8.01,0.1,-2.63,-1.74,-0.13,0.09
37.522034,8.85,-0.27,-1.16,-1.76,-0.26,0.06
37.59503,10.23,0.05,-0.1,-1.62,0.01,0.05
37.66803,11.59,1.39,0.26,-1.7,0.2,0.04
37.741028,12.25,2.37,-6.41,-0.98,-0.09,0.01
37.814026,9.56,3.06,-3.62,-1.08,-0.11,-0.23
37.887024,8.67,0.52,-2.69,-1.21,-0.28,-0.1
37.960022,6.26,0.75,-1.98,-0.92,-0.16,-0.03
38.03302,8.43,1.69,-1.3,-0.64,-0.28,0.03
38.106018,9.7,0.97,-0.02,-0.28,0.12,0.35
38.179016,11.65,1.37,0.83,-0.18,0.38,0.53
38.252014,13.43,2.42,-5.02,0.04,0.3,0.17
38.325012,8.54,3.56,-4.98,0.14,0.96,0.14
38.39801,10.53,0.61,-2.96,-1.32,-0.1,-0.03
38.47101,6.59,0.93,-2.23,-1.34,0.35,0.11
38.544006,7.9,0.12,-1.93,-1.73,-0.02,-0.05
38.617004,9.6,-0.81,-1.5,-1.97,-0.19,0.06
38.690002,9.3,-0.32,-0.07,-1.73,0.08,0.08
38.763,10.43,0.2,0.42,-1.37,0.36,0.22
38.836,12.82,0.75,-3.52,-1.76,-0.01,0.32
38.908997,9.87,1.96,-4.35,-0.91,0.36,0.35
38.981995,9.85,0.86,-3.06,-1.31,-0.54,-0.15
39.054993,7.58,-0.42,-2.78,-1.38,-0.27,0.01
39.12799,7.34,0.29,-2.37,-1.2,-0.06,-0.39
39.20099,9.81,0.26,-1.12,-0.38,-0.02,-0.08
39.273987,10.36,0.12,-0.48,-0.06,0.3,0.23
39.346985,11.24,1.77,0.93,0.17,0.58,0.17
39.419983,11.3,2.05,-5.27,-0.19,0.33,-0.06
39.49298,9.7,1.32,-2.57,-0.5,0.59,-0.48
39.56598,10.73,0.91,-3.62,-1.65,0.11,0.15
39.639038,7.03,1.47,-2.11,-1.81,0.47,-0.08
39.712036,7.98,0.49,-2.5,-2.24,0.1,-0.13
39.785034,8.09,-0.63,-1.73,-2.24,-0.04,-0.11
39.858032,9.7,0.25,-0.56,-2.23,-0.25,-0.02
39.93103,11.03,-0.5,-1.16,-2.2,-0.4,0.07
40.00403,11.38,0.41,-1.1,-2.33,-0.26,0.02
40.077026,11.51,0.75,-5.6,-1.96,-0.31,-0.14
40.150024,8.43,3.08,-2.22,-1.64,-0.13,-0.17
40.223022,7.43,-1.09,-3.04,-1.96,0.05,0.35
40.29602,6.83,-0.75,-2.56,-0.08,0.14,-0.08
40.36902,10.38,-1.5,-1.71,0.6,-0.31,0.38
40.442017,10.08,-1.03,-1.19,1.63,0.06,0.57
40.515015,9.87,0.1,-0.94,2.57,0.88,-0.25
40.588013,9.98,1.75,1.01,2.26,0.26,-0.06
40.66101,11.66,1.75,-1.99,1.05,0.05,0.18
40.73401,11.14,0.82,-4.43,1.64,0.21,-0.63
40.807007,8.96,2.02,-1.58,0.03,-0.07,-0.07
40.880005,7.26,1.54,-2.19,-0.36,-0.04,0.06
40.953003,8.06,0.52,-2.18,-1.04,-0.21,-0.2
41.026,9.24,-0.54,-2.14,-1.27,-0.3,0.09
41.099,10.15,-0.08,0.24,-1.04,0.11,-0.05
41.171997,11.11,1.16,0.76,-0.93,0.4,0
41.244995,13.24,0.59,-5.34,-1.1,0.17,0.06
41.317993,7.64,2.56,-2.68,-0.61,0.25,-0.2
41.39099,9.82,0.74,-2.98,-1.34,-0.25,-0.22
41.46399,6.01,-0.9,-2.05,-1.09,-0.09,0.31
41.536987,8.09,1.43,-1.03,-0.41,-0.02,-0.24
41.609985,10.52,1.39,-0.07,-0.16,-0.22,0.06
41.682983,11.03,-0.11,0.11,-0.45,0.14,0.36
41.75702,12.27,1.4,0.36,0.15,0.29,0.16
41.830017,9.83,-0.35,-5.22,0.45,0.59,-0.05
41.903015,10.21,-0.37,-2.78,-0.06,-0.37,-0.05
41.976013,8.85,0,-2.53,0.37,0.2,0.21
42.04901,5.21,0.66,-1.32,0.21,0.18,-0.2
42.12201,9.26,-1.32,-1.84,-0.56,-0.39,-0.24
42.195007,10.53,-1.17,-0.1,-0.24,-0.05,-0.14
42.268005,11.42,-0.46,0.81,-0.16,0.49,-0.22
42.341003,12.52,-0.46,-3.57,-0.6,0.19,0.01
42.414,8.67,0.76,-3.52,0.8,0.73,0.02
42.487,9.85,0.14,-2.58,0.5,-0.3,-0.11
42.559998,6.75,-1.67,-2.37,0.67,-0.09,0.19
42.632996,7.59,1.07,-1.31,1.55,0.03,-0.27
42.705994,9.43,1.59,0.25,1.41,-0.14,-0.12
42.77899,10.51,-0.49,-0.29,0.35,-0.03,0.03
42.85199,12.11,0.67,2.96,1.08,0.41,0.1
42.924988,11.88,-0.24,-5.79,0.15,-0.08,0.01
42.997986,8.36,-1.22,-3.9,0.88,0.12,-0.25
43.070984,9.66,0.76,-2.63,1.01,-0.2,-0.01
43.143982,5.72,0.89,-0.97,0.57,-0.04,-0.27
43.21698,8.96,-1.03,-1.88,-0.2,-0.45,-0.17
43.29004,10.34,-0.97,-0.56,-0.04,-0.45,-0.1
43.363037,11.15,-0.17,0.08,0.04,0.34,-0.25
43.436035,13.44,-1.09,-3.19,-0.64,0.16,0.21
43.509033,8.3,1.09,-4.91,0.65,0.37,0.08
43.58203,9.75,2.26,-2.59,0.76,-0.48,-0.4
43.65503,7.22,-1.1,-2.96,0.08,-0.46,0.28
43.728027,6.36,0.74,-1.84,0.62,0.02,-0.12
43.801025,9.79,1.22,-1.07,0.89,-0.2,-0.15
43.874023,10.57,-0.45,-1.99,0.35,-0.02,0.21
43.94702,12.17,0.86,1.73,0.53,0.42,0.12
44.02002,11.26,-0.93,-8.96,0.67,-0.06,-0.15
44.093018,9.51,-0.66,-4.33,0.93,0.25,-0.42
44.166016,8.76,0.26,-3.6,0.73,-0.04,0.07
44.239014,5.42,0.31,-1.92,0.71,0.04,-0.31
44.31201,8.31,-0.53,-2.39,0.39,-0.06,-0.18
44.38501,10.94,-0.31,-0.76,0.02,0.04,-0.1
44.458008,12.11,-0.88,0.32,-0.29,0.42,-0.04
44.531006,12.62,-0.33,-6,-0.37,-0.03,0.02
44.604004,8.26,1.63,-3.51,0.37,0.52,0.23
44.677002,9.51,0.25,-3.24,0.3,-0.19,-0.14
44.75,6.27,-0.44,-2.27,0.11,-0.03,0.27
44.822998,7.45,0.36,-2.02,0.43,-0.13,-0.04
44.895996,9.85,0.43,-0.71,0.72,-0.12,-0.02
44.968994,11.08,-0.27,-0.54,0.48,0.21,0.25
45.041992,13.09,0.44,-2.09,0.38,0.2,-0.03
45.11499,9.78,-0.78,-5.75,0.83,0.43,-0.23
45.18799,9.89,-0.75,-3.93,0.37,-0.16,-0.12
45.260986,7.38,0.58,-2.28,0.34,-0.02,-0.07
45.333984,6.65,-0.34,-1.9,0.11,0.09,-0.09
45.406982,8.85,-0.81,-0.82,-0.34,-0.02,-0.06
45.47998,10.47,-0.92,-0.08,-0.3,0.01,-0.19
45.55304,11.94,-0.86,0.22,-0.48,0.57,-0.03
45.626038,12.09,0.17,-7.28,0.04,-0.02,-0.06
45.699036,9.59,1.41,-3.14,0.42,0.12,0.02
45.772034,8.09,-1.05,-2.8,0.29,-0.04,-0.08
45.84503,6.03,-0.46,-1.78,0.59,0.02,-0.02
45.91803,8.14,0.9,-1.26,0.99,-0.15,-0.18
45.991028,10.23,0.5,-0.29,0.86,0.07,0
46.064026,12.26,0.17,1.39,0.5,0.18,0.21
46.137024,13.04,0.33,-5.34,0.37,-0.16,-0.07
46.210022,8.74,-0.67,-4.04,0.82,0.46,-0.25
46.28302,10.33,-0.98,-3.42,0.36,-0.38,-0.01
46.356018,5.73,0.67,-1.9,0.66,0.13,-0.08
46.429016,6.77,0,-1.8,0.08,0.12,-0.13
46.502014,10.5,-0.52,-0.71,-0.65,-0.28,-0.19
46.575012,11.11,-0.63,-0.03,-0.41,0.2,-0.17
46.64801,12.8,-0.4,-0.76,-0.67,0.45,0.05
46.72101,10.36,0.59,-5.46,-0.03,0.49,0.07
46.794006,9.24,2.61,-2.81,0.42,0.07,-0.35
46.867004,7.66,-0.44,-2.75,-0.59,-0.45,0.02
46.940002,6.39,-0.23,-1.8,-0.06,-0.18,-0.06
47.013,8.65,1.25,-1.26,0.83,-0.13,-0.01
47.086,10.11,1.31,-0.05,0.7,-0.05,0.01
47.158997,11.94,1.21,1.42,0.53,0.35,0.15
47.231995,13.98,-0.01,-6.83,0.44,-0.03,0.1
47.304993,8.49,-0.82,-3.88,0.67,0.37,0.05
47.37799,9.82,-0.32,-3.65,0.59,-0.23,0.03
47.45099,6.34,0.67,-1.86,0.53,0.13,-0.06
47.523987,7.77,-0.46,-2.07,-0.28,0.06,0.04
47.596985,8.65,-0.52,-0.51,-0.28,0.15,-0.04
47.669983,10.35,0.03,-0.07,-0.27,0.28,-0.27
47.74298,11.95,-0.25,1.01,-0.86,0.43,0.04
47.81598,12.73,-0.28,-6.59,-0.44,0.06,0.28
47.889038,9.09,3.46,-2.39,-0.01,0.26,-0.06
47.962036,8.79,-0.1,-2.94,-0.68,-0.06,0.02
48.035034,6.34,-0.73,-1.34,-0.6,-0.15,0.16
48.108032,8.55,1.05,-0.92,-0.21,-0.25,0.09
48.18103,9.7,1.37,-0.74,-0.15,-0.09,0.28
48.25403,10.68,0.69,0.73,-0.28,0.26,0.33
48.327026,12.78,0.84,-3.64,-0.63,0.31,0.2
48.400024,10.61,1.35,-4.39,0.26,0.67,-0.16
48.473022,10.64,1.02,-3.31,-1.23,0.02,-0.25
48.54602,6.99,1.52,-2.84,-1.72,0.25,-0.01
48.61902,7.59,-0.1,-2.74,-2.2,-0.19,-0.16
48.692017,8.39,-1.2,-2.07,-2.12,-0.17,0.05
48.765015,9.92,-0.59,0.09,-1.52,0.05,0
48.838013,11.23,0.94,1.39,-1.15,0.32,-0.12
48.91101,12.85,1.63,-4.91,-1.48,-0.17,-0.28
48.98401,8.85,2.41,-4.04,-0.86,0.18,-0.28
49.057007,9.41,0.23,-3.07,-1.52,-0.56,-0.04
49.130005,6,-1.05,-2.12,-0.84,-0.11,0.31
49.203003,7.63,1.16,-1.04,-0.25,-0.07,0.03
49.276,9.99,0.69,-1.34,0.03,-0.16,0.2
49.349,11.8,-0.09,-0.12,0.07,0.06,0.39
49.421997,12.68,1.35,0.69,0.36,0.47,0.28
49.494995,10.66,0.49,-6.26,0.55,0.42,0.18
49.567993,9.18,-0.18,-2.98,0.01,0.32,-0.03
49.64099,9.92,0.29,-2.68,-0.67,0.08,0.16
49.71399,6.3,0.15,-2.01,-0.83,0.32,0.03
49.786987,8.14,-0.73,-2.61,-1.18,0.03,-0.08
49.859985,9.45,0.53,-1.07,-1.37,0.12,-0.18
49.932983,9.24,0.03,-0.99,-1.87,0.19,-0.18
50.00598,11.06,-0.17,-0.89,-2.39,0.57,-0.11
50.07898,13.29,-0.57,-7.38,-1.78,-0.3,-0.02
50.15204,9.25,3.62,-2.31,-0.93,-0.09,-0.11
50.225037,8.09,0.28,-2.67,-1.41,-0.24,0.2
50.298035,6.29,-0.43,-0.82,-0.54,0.2,0.12
50.371033,9.82,0.64,-0.39,-0.14,-0.03,0.1
50.44403,10.89,-0.15,-0.8,-0.09,0.05,0.59
50.51703,10.74,0.16,-5.01,0.63,0.12,0.06
50.590027,10.24,0.34,-1.61,0.63,0.56,-0.28
50.663025,10.74,0.5,-2.63,0.15,-0.23,-0.16
50.736023,7.53,0.45,-1.09,-0.18,0.34,0.01
50.80902,9.81,0.31,-0.77,-0.61,0.41,-0.06
50.88202,8.45,-0.32,-3.87,-0.84,0.87,-0.2
50.955017,11.08,-0.29,-2.63,-1.01,0.36,-0.21
51.028015,10.22,-0.58,-1.03,-0.25,-0.26,0.29
51.101013,8,-1.74,-1.22,-0.01,-0.09,0.15
51.17401,9.41,-0.39,-1.57,0.93,-0.14,-0.09
51.24701,9.05,1.1,-1.44,1.19,-0.25,-0.31
51.320007,8.83,0.95,-0.95,0.9,0.03,-0.18
51.393005,8.44,1.84,-0.65,0.72,-0.11,-0.03
51.466003,9.87,1.7,-0.6,0.84,-0.21,0.17
51.539,11.47,0.92,-2.6,0.46,-0.58,0.63
51.612,12.59,-5.03,-5.39,0.68,-0.18,0.94
51.684998,9.22,-5.29,-4.76,-0.6,-0.37,1.31
51.757996,6.62,-2.57,-2.03,-0.33,0.08,1.15
51.830994,6.13,-1.68,-3.43,-1.33,0.11,0.61
51.90399,11.58,0.59,-2.88,-2.35,0.8,-0.02
51.97699,8.39,-3.9,-7.71,-4.84,1.05,0.9
52.049988,8.13,-4.47,-5.78,-3.9,1.27,1.1
52.122986,5.45,-2.73,-2.48,-3.39,1.45,0.83
52.195984,11.4,-3.62,-3.03,-3.19,1.26,0.66
52.268982,8.85,-0.79,-1.5,-2.03,1.24,0.04
52.34198,7.51,0.25,-0.99,-1.26,1.09,-0.34
52.41504,13.68,1.23,-1.44,-1.4,0.69,-1.13
52.488037,14.83,-3.05,-5.44,-2.59,-0.31,-0.15
52.561035,7.17,0.63,-2.63,-0.53,0.91,-0.44
52.634033,6.71,0.12,-3.18,-0.85,0.3,-0.58
52.70703,6.78,-1.5,-1.65,-0.61,-0.33,-0.09
52.78003,9.24,0.86,-0.92,0.59,0.06,-0.19
52.853027,10.32,-0.62,-0.9,0.43,-0.16,0.01
52.926025,11.19,-0.84,-0.52,0.84,0.25,0.31
52.999023,12.02,0.76,-0.75,1.14,0.71,0.16
53.07202,10.22,-1.51,-6.52,1.4,0.45,-0.37
53.14502,11.1,-0.52,-3.62,1.35,-0.22,-0.16
53.218018,6.2,0.33,-1.97,1.3,0.15,-0.07
53.291016,6.28,-0.15,-2.01,0.74,0.11,-0.41
53.364014,10.01,-1.38,-1.62,0.13,-0.21,-0.11
53.43701,10.3,-0.76,0.42,0.19,-0.2,-0.24
53.51001,10.95,-1.31,0.57,-0.24,0.43,-0.24
53.583008,12.76,-1.58,-4.67,-0.15,0.4,0.08
53.656006,9.47,0.22,-3.74,1.38,0.62,0.14
53.729004,8.83,1.23,-1.97,0.98,0.01,-0.12
53.802002,6.93,-1.27,-1.75,0.6,-0.05,0.28
53.875,8.29,-0.2,-2.2,1.47,-0.11,-0.05
53.947998,9.47,0.2,-0.39,1.66,-0.17,-0.04
54.020996,10.01,-0.33,-0.18,1.15,0.02,0.11
54.093994,12.08,-0.07,2.33,1.24,0.28,0.13
54.166992,12.19,-2.03,-6.7,0.58,-0.54,0.08
54.23999,8.19,-1.69,-4.07,1.67,0.17,-0.2
54.31299,8.45,0.76,-2.84,1.91,-0.02,-0.12
54.385986,6.28,0.57,-1.09,0.99,-0.12,-0.22
54.458984,9.48,-1.84,-1.71,-0.16,-0.44,0
54.531982,10.16,-1.39,-0.13,0.14,-0.24,-0.1
54.60498,10.93,-1.19,0.63,0.01,0.33,-0.15
54.67804,12.05,-0.84,-4.96,-0.49,0.05,0.02
54.751038,9.8,-0.39,-4.13,1.01,0.36,0.03
54.824036,9.65,0.05,-3.09,0.84,-0.36,0.06
54.897034,6.88,-1.33,-2.2,0.68,-0.12,0.11
54.97003,7.58,0.71,-2.05,1.25,0.05,-0.29
55.04303,8.7,0.59,-0.51,0.95,0.01,-0.24
55.116028,11.34,-0.48,-0.54,0.25,-0.07,0.06
55.189026,13.08,1.08,2.03,0.29,0.33,0.03
55.262024,9.75,-1.35,-7.2,0.06,0.2,-0.18
55.335022,10.61,-1.05,-3.58,0.04,-0.22,-0.07
55.40802,7.84,0.92,-2.5,0.58,0.11,0.1
55.481018,5.18,0.56,-1.71,0.04,0.17,-0.24
55.554016,9.63,-1.43,-2.1,-0.65,-0.19,-0.1
55.627014,10.36,-0.7,-0.03,-0.48,0.07,-0.1
55.700012,12.11,-1.15,0.95,-0.49,0.65,-0.07
55.77301,12.06,0.1,-6.34,-0.54,0.1,0.31
55.84601,9.3,2.06,-2.78,0.63,0.48,-0.24
55.919006,8.69,0.5,-2.76,-0.28,-0.16,-0.01
55.992004,5.79,-1.39,-1.87,-0.1,-0.15,0.23
56.065002,7.94,0.87,-1.13,0.9,-0.28,-0.35
56.138,10.38,1.28,0.12,0.82,-0.24,-0.09
56.211,11.5,1.37,0.65,-0.04,0.05,0.26
56.283997,12.93,1.11,-1.56,-0.37,0.13,0.16
56.356995,9.32,-1.81,-4.94,0.2,0.71,-0.2
56.429993,10.31,-0.99,-3.86,0.02,-0.52,0.13
56.50299,7,1.05,-1.89,0.7,0.17,-0.07
56.57599,6.26,0.38,-1.78,-0.09,0.01,-0.31
56.648987,9.53,-1.48,-1.54,-0.67,-0.31,-0.13
56.721985,10.64,-0.45,0.35,-0.34,0.04,-0.27
56.794983,12.43,-0.42,-0.01,-0.62,0.43,0.05
56.86798,11.77,-0.59,-6.87,-0.27,0.12,0.26
56.94098,9.7,2.53,-2.6,0.66,0.26,-0.35
57.014038,7.94,-1.05,-3.3,0.34,-0.07,0.06
57.087036,6,-0.76,-1.81,0.67,0.03,0.05
57.160034,8.13,1.25,-1.26,1.13,-0.03,-0.16
57.233032,10.17,1,-0.24,0.95,-0.14,-0.03
57.30603,11.66,0.61,0.62,0.42,0.24,0.13
57.37903,13.32,-0.2,-3.19,0.5,0.13,0.09
57.452026,9.3,-1.2,-4.44,0.68,0.44,-0.26
57.525024,9.87,-0.84,-3.6,0.5,-0.29,-0.01
57.598022,6.58,0.59,-2.03,0.68,0.2,-0.18
57.67102,6.81,0,-1.64,0.23,0.1,-0.15
57.74402,9.72,-0.67,-0.81,-0.33,-0.26,-0.04
57.817017,11.02,-0.15,-0.24,-0.2,-0.01,-0.23
57.890015,11.61,0.23,0.05,-0.45,0.6,-0.07
57.963013,11.13,-0.36,-6.58,-0.19,0.01,0.03
58.03601,9,1.28,-2.8,0.37,0.02,-0.12
58.10901,8.73,-1,-2.76,0.14,-0.07,0.09
58.182007,6,-0.56,-1.65,0.42,0.01,0.18
58.255005,8.24,0.82,-1.33,1,-0.34,-0.16
58.328003,9.75,0.53,-0.65,0.94,-0.09,-0.02
58.401,11.66,-0.21,0.28,0.55,0.13,0.24
58.474,13.51,-0.49,-3.3,0.89,0.03,-0.21
58.546997,9.38,-1.53,-4.44,1.04,0.49,-0.21
58.619995,10.11,-1.92,-3.77,0.73,-0.3,0.06
58.692993,6.78,0.22,-1.75,1.07,0.1,-0.2
58.76599,6.6,-0.44,-1.54,0.8,0.01,-0.14
58.83899,10.07,-1.4,-0.76,0.05,-0.27,-0.03
58.911987,11.23,-0.86,-0.03,0.23,0.01,-0.4
58.984985,11.53,-1.56,0.86,0.01,0.71,-0.25
59.057983,11.32,-1.24,-5.88,0.28,0.13,0.14
59.13098,9.49,0.39,-3.16,0.96,0.14,0.1
59.20398,8.38,-1.04,-2.7,0.94,-0.02,0.13
59.27704,6.68,-0.17,-1.68,1.29,0.07,0.11
59.350037,8.51,0.48,-1.44,1.27,-0.15,0.09
59.423035,9.72,0.82,-0.05,0.89,-0.06,0.19
59.496033,10.94,0.68,0.22,0.69,0.13,0.2
59.56903,12.43,1.11,-3.27,0.42,0.24,0.02
59.64203,10.26,-0.14,-4.41,0.37,0.55,-0.24
59.715027,10.22,-0.62,-3.13,-0.46,-0.19,-0.11
59.788025,7.64,1.82,-1.9,-0.62,0.08,-0.24
59.861023,6.67,0.61,-2.49,-1.1,0.12,-0.02
59.93402,9.04,-0.29,-2.26,-1.82,-0.2,-0.05
60.00702,9.72,0.5,-0.1,-1.67,-0.01,-0.1
60.080017,11.02,0.65,0.08,-1.28,0.25,-0.08
60.153015,12.81,1.71,-3.69,-1.75,0.04,0.08
60.226013,9.64,1.99,-4.41,-1.15,0.19,-0.02
60.29901,8.99,1.9,-3.98,-1.33,-0.34,-0.14
60.37201,6.37,-0.62,-2.16,-1.76,-0.19,0.35
60.445007,7.41,0.46,-1.63,-0.98,-0.29,0.18
60.518005,9.85,1.41,-0.47,-0.3,-0.31,0.24
60.591003,11.35,0.85,-0.08,-0.39,0.07,0.52
60.664,12.83,1.84,-1.45,-0.14,0.38,0.41
60.737,10.1,1.48,-5.43,0.53,0.68,-0.17
60.809998,10.3,1.2,-3.78,-1.15,0,-0.33
60.882996,8.58,1.09,-2.63,-1.77,0.12,-0.03
60.955994,7.32,0.29,-2.73,-1.82,0.35,0.11
61.02899,8.45,-0.42,-2.14,-1.86,0.23,0.05
61.10199,9.64,-0.08,0.2,-1.66,0.2,-0.04
61.174988,10.67,0.01,0.55,-1.39,0.34,0.05
61.247986,12.96,2.22,-5.64,-1.37,0.03,0
61.320984,10.3,3.05,-5,-1.08,0.07,-0.32
61.393982,8.73,1.29,-3.36,-1.77,-0.23,0.03
61.46698,6.3,-0.32,-1.89,-1.7,-0.04,0.24
61.54004,7.5,0.78,-0.93,-0.98,-0.02,0.16
61.613037,9.47,0.67,-0.53,0.34,0.11,0.14
61.686035,11.6,1.31,1.09,-1.02,0.22,0.84
61.759033,12.78,1.23,-4.35,-0.31,0.42,0.2
61.83203,9.35,-2.45,-4.3,0.18,0.62,0.56
61.90503,10.69,-0.16,-3.64,-1.41,-0.17,-0.23
61.978027,6.85,-0.22,-2.14,-1.28,0.25,-0.03
62.051025,7.53,-0.7,-1.93,-1.67,0.2,0.03
62.124023,8.98,-0.46,-1.52,-1.17,0.28,-0.13
62.19702,10.85,-0.02,-0.08,-0.95,0.16,-0.27
62.27002,11.24,-0.94,0.82,-1.09,0.39,-0.29
62.343018,11.75,-0.32,-6.09,-0.4,0.23,-0.35
62.416016,8.58,1.31,-3.01,0.29,0.09,-0.37
62.489014,9.34,-1.55,-2.24,0.22,-0.46,-0.3
62.56201,5.87,1.73,-3.37,0.76,-0.13,-0.1
62.63501,7.92,1.17,-1.75,1.19,-0.09,0.02
62.708008,10.78,1.57,-1.5,1.26,-0.16,0.2
62.781006,10.98,1.77,-1.43,0.92,0.03,0.18
62.854004,11.28,3.29,-1.1,0.66,0.25,0.14
62.927002,10.57,0.96,-5.01,0.06,0.03,-0.24
63,8.7,0.03,-4.47,-1.21,0.26,-0.38
63.072998,6.76,-0.97,-3.77,-1.63,0.28,-0.16
63.145996,7.07,0.37,-2.02,-1.73,-0.05,0.02
63.218994,12.53,0.7,-1.8,-1.88,-0.48,0.2
63.291992,9.6,-0.1,-2.18,-1.83,0.15,0.54
63.36499,8.77,-0.29,-0.73,-1.65,0.31,0.41
63.43799,10.62,0.54,0.23,-1.36,0.19,0.18
63.510986,11.86,1.59,-3.33,-1.3,0.53,-0.1
63.583984,11.56,2.24,-6.28,-1.11,-0.11,-0.18
63.656982,9.19,1.2,-3.69,-1.57,-0.39,-0.07
63.72998,5.56,-1.68,-2.11,-1.71,-0.25,0.34
63.80304,7.12,0.21,-1.84,-1.36,-0.24,0.16
63.876038,9.8,0.86,-0.88,-0.47,-0.24,0.3
63.949036,12.4,-0.34,-0.56,-0.42,0.21,0.29
64.02203,13,1.77,-1.99,0.04,0.54,-0.07
64.09503,10.11,-0.46,-5.89,0.27,0.74,-0.21
64.16803,9.92,-0.22,-3.36,-0.79,-0.6,0.09
64.24103,8.26,-0.49,-2.76,-0.45,0.07,0.16
64.314026,5.58,-0.49,-2.38,-0.37,0.35,-0.32
64.387024,7.85,-0.97,-1.77,-0.34,0.35,-0.35
64.46002,10.43,-0.86,-0.65,-0.48,-0.03,-0.27
64.53302,12.15,-1.37,0.77,-0.34,0.33,-0.45
64.60602,13.22,-2.09,-6.43,-0.46,0.25,0.04
64.679016,9.62,0.86,-2.82,1.24,0.77,0.32
64.752014,8.37,0.37,-2.75,0.74,0.27,0.34
64.82501,5.94,-0.59,-1.46,0.78,-0.17,0.4
64.89801,7.71,0.26,-1.03,1.28,-0.08,0.07
64.97101,9.39,-0.67,0.33,0.96,-0.21,0
65.04401,11.66,-0.58,1.3,1.03,0.02,-0.04
65.117004,12.7,0.66,-3.2,0.51,0.15,-0.16
65.19,11.09,-3.2,-4.9,0.59,0.05,-0.36
65.263,10.28,-0.64,-3.29,0.77,-0.23,0.04
65.336,5.32,0.42,-1.92,0.91,0.16,-0.2
65.409,6.97,-0.07,-1.37,0.16,0.02,-0.3
65.481995,9.41,-0.6,-0.65,-0.26,-0.18,-0.25
65.55499,11.91,-0.88,1.1,-0.42,-0.21,-0.46
65.62799,11.63,-0.9,-0.67,-0.88,0.24,0.36
65.70099,11.1,-1.17,-6.39,0.48,0.65,-0.16
65.77399,9.98,1.29,-2.33,0.71,-0.31,0.14
65.846985,6.62,-0.73,-2.09,0.46,-0.03,0.22
65.91998,6.4,0.35,-1.9,0.92,0.06,-0.07
65.99298,8.73,0.79,-0.31,0.85,-0.15,-0.04
66.06598,11.08,0.26,0.11,0.42,-0.11,0.13
66.13904,13.14,0.89,3.07,0.47,0.33,0.02
66.212036,10.43,-0.75,-7.35,-0.02,0.45,-0.05
66.285034,11.41,-1.82,-3.39,0.27,-0.26,-0.45
66.35803,8.54,0.76,-1.98,0.57,0.1,0.18
66.43103,3.76,0.81,-1.16,-0.06,0.08,-0.18
66.50403,8.47,-0.48,-1.25,-0.28,-0.02,-0.35
66.57703,11.87,-0.68,0.15,-0.44,-0.22,-0.29
66.650024,12.67,-1.92,2.2,-0.64,0.22,0.17
66.72302,12.01,-0.67,-7.12,0.09,0.49,0.35
66.79602,9.6,2.28,-2.37,0.96,0.15,-0.14
66.86902,7.99,-0.24,-2.54,0.03,-0.46,0.07
66.94202,5.07,-1.07,-1.67,0.28,-0.07,0.29
67.015015,7.92,1.04,-1.03,0.99,-0.01,-0.18
67.08801,11.19,1.03,0.33,0.65,-0.18,-0.05
67.16101,13.05,0.36,2.37,0.26,0.4,0.22
67.23401,11.77,0.08,-6.56,0.23,0.28,-0.19
67.30701,10.66,-1.94,-3.5,0.32,0.18,-0.39
67.380005,9.14,-0.02,-2.41,0.41,-0.03,0.2
67.453,4.3,0.48,-1.1,0.2,0.07,-0.08
67.526,8.07,-0.52,-1.29,-0.09,-0.05,-0.19
67.599,10.77,-0.43,0.08,-0.33,-0.17,-0.29
67.672,12.58,-1.6,2.14,-0.71,0.19,-0.13
67.744995,12.18,-1.02,-7.24,-0.56,0.13,0.48
67.81799,10.62,1.86,-2.62,1,0.29,-0.12
67.89099,7.98,0.1,-2.63,-0.11,-0.38,0.22
67.96399,5.02,-0.82,-1.95,0.31,-0.07,0.3
68.03699,7.77,0.53,-1.04,1.01,0.11,-0.21
68.109985,10.89,0.45,0.43,0.82,-0.08,-0.1
68.18298,12.63,0.63,2.79,0.61,0.23,0.02
68.25598,11.98,0.73,-4.29,-0.18,0.17,-0.03
68.32898,10.58,-2.58,-3.84,0.12,0.04,-0.35
68.40204,10.09,-0.12,-2.78,0.38,-0.2,0.12
68.47504,4.1,0.85,-1.44,0.36,0.07,0.01
68.548035,7.21,-0.1,-1.5,-0.29,-0.23,-0.26
68.62103,10.66,-1.63,-0.64,-0.73,-0.33,-0.17
68.69403,12.22,-1.56,1.7,-0.26,0.28,-0.27
68.76703,12.41,-0.85,-4.15,-0.41,0.3,0.18
68.84003,10.11,0.73,-3.97,0.88,0.53,-0.06
68.913025,9.21,0.53,-2.97,0.24,-0.58,-0.04
68.98602,6.07,-1.18,-2.26,0.38,-0.07,0.29
69.05902,6.42,0.73,-1.82,0.76,-0.14,-0.14
69.13202,9.75,0.35,-0.2,0.83,-0.2,-0.06
69.20502,12.1,0.24,0.46,0.67,0.05,0.08
69.278015,13.42,1.33,-2.31,0.33,0.13,-0.16
69.35101,9.86,-2.39,-5.25,0.15,0.47,-0.26
69.42401,9.89,-1.61,-3.85,0.31,-0.56,-0.02
69.49701,6.33,0.54,-2.15,0.78,-0.03,-0.02
69.57001,6.74,-0.15,-2.03,0.03,-0.1,-0.33
69.643005,9.72,-1.58,-1.24,-0.5,-0.04,-0.03
69.716,10.89,-1.22,0.37,-0.08,0.22,-0.33
69.789,12.77,-0.61,-3.6,-0.84,0.33,0.19
69.862,10.89,-0.03,-5.15,1.05,0.96,0.05
69.935,9.83,1.38,-2.88,0.59,-0.05,-0.08
70.007996,6.45,-1.44,-2.26,0.25,-0.04,0.24
70.08099,6.48,0.13,-2.01,1.02,-0.1,-0.13
70.15399,8.22,1.33,0.01,1.45,-0.15,-0.15
70.22699,11.65,0.52,0.58,0.86,-0.1,0.01
70.29999,13.45,1.95,0.5,0.3,0.27,-0.02
70.372986,10.7,-0.88,-6.18,0.07,0.37,-0.28
70.445984,10.8,-1.39,-4.06,-0.11,-0.42,-0.19
70.51898,7.04,1.71,-2.11,0,0.12,0.26
70.59198,5.13,0.08,-1.75,-0.71,-0.08,0.02
70.66504,9.56,-1.2,-1.64,-0.83,-0.19,0.03
70.73804,11.49,-1.18,0.37,-0.49,0.06,-0.18
70.811035,12.68,-1.15,-1.78,-1.01,0.38,0.16
70.88403,10.68,-0.75,-5.25,0.55,0.65,0.13
70.95703,9.86,2.09,-1.94,0.86,0.17,-0.36
71.03003,6.64,-1.75,-2.2,-0.13,-0.25,0.36
71.10303,6.09,-0.58,-1.86,0.97,0.05,0.02
71.176025,9.04,0.72,0.44,1.3,0.04,-0.1
71.24902,11.32,-0.13,0.47,0.53,-0.15,0.21
71.32202,13.98,0.71,-1.83,0.35,0.1,0.2
71.39502,9.41,-2.63,-4.62,0.8,0.57,-0.18
71.46802,11.09,0,-2.92,0.57,-0.13,-0.1
71.541016,7.38,0.99,-1.79,0.55,0.23,0.02
71.61401,6.28,0.07,-1.14,-0.66,0.1,-0.29
71.68701,9.48,-1.18,-1.14,-1.24,0.1,-0.05
71.76001,9.29,-1.46,-0.57,-1.12,0.17,-0.08
71.83301,10.74,-0.44,-4.81,-2.21,0.1,0.75
71.906006,12.2,0.91,-4.14,0.65,0.47,-0.14
71.979004,9.75,1.95,-2.18,-1.8,-0.74,0.64
72.052,8.94,-1.39,-2.27,-1.45,-0.01,1.02
72.125,5.78,-1.89,-1.32,-1.54,-0.27,0.73
72.198,7.48,-0.89,-1.2,-1.13,-0.38,0.11
72.270996,9.67,-1.94,-2.41,-0.87,-0.24,0.43
