NAME:,walk_121_2_1.csv,,,,,
EXPERIMENT TIME:,18/03/2024 16:45,,,,,
ACTIVITY TYPE:,Walking,,,,,
COUNT OF ACTUAL STEPS:,109,,,,,
,,,,,,
Time [sec],ACC X,ACC Y,ACC Z,GYRO X,GYRO Y,GYRO Z
0.043527,2.35,-7.45,4.71,-0.02,-0.02,0.03
0.131796,2.35,-7.65,4.59,-0.01,-0.01,0.03
0.229168,2.24,-7.45,4.55,0,-0.05,0.03
0.333254,2.35,-7.57,4.55,-0.02,-0.02,-0.01
0.420402,2.12,-7.61,4.75,-0.05,-0.1,0.01
0.531331,2.16,-7.57,4.55,-0.02,-0.11,0.02
0.619672,2.24,-7.53,4.63,-0.02,-0.09,0.03
0.741186,2.35,-7.81,4.71,-0.02,-0.11,0.03
0.821955,2.75,-7.41,4.2,-0.02,-0.11,0.02
0.929437,2.28,-7.53,4.67,0.01,-0.12,0.01
1.074022,2.55,-7.49,4.31,0.02,-0.09,0
1.142887,2.59,-7.49,4.59,0.02,-0.12,0.03
1.238637,2.67,-7.53,3.77,0.01,-0.09,-0.01
1.361728,2.94,-7.65,4.43,-0.03,-0.11,-0.01
1.47574,2.43,-7.45,4.16,0.01,-0.31,0.09
1.538753,2.67,-7.41,4.9,0.11,-0.13,0.03
1.639811,2.51,-7.3,5.69,0.18,-0.44,0.3
1.737661,2.43,-7.34,4.86,0.6,-0.92,0.22
1.860761,2.98,-6.47,5.1,0.68,-0.98,0.17
1.950876,2.9,-5.26,4.31,0.74,-0.88,0.11
2.047583,2.98,-4.31,5.57,0.31,-0.55,0.37
2.224864,3.1,-5.33,8.87,0.43,-0.85,0.57
2.283969,8.51,-11.89,7.57,1.16,-1.48,-0.83
2.357068,5.53,-12.75,3.18,-3.24,2.46,0.42
2.457963,2.31,-7.14,2.55,-0.31,0.91,0.44
2.592649,1.69,-3.84,2.31,0.11,0.99,-0.04
2.701285,0.16,-5.73,3.33,-0.15,0.04,-0.36
2.771278,-1.73,-10.4,9.96,0.66,0.94,0.04
2.883697,0.86,-14.08,3.88,0.91,0.37,-0.21
3.003893,9.14,-9.73,1.14,-1.48,-0.12,-0.48
3.066194,-1.73,-3.61,3.57,1.31,-0.93,0.1
3.185377,2.24,-2.94,-0.12,0.89,-1.29,0.3
3.320851,1.96,-8.16,14.16,-0.22,-0.03,1.18
3.386705,7.81,-8.16,8.2,1.45,-1.37,0.05
3.482268,5.33,-8.36,-0.9,-0.73,1.95,0.16
3.602954,1.1,-4.86,0.82,0.21,-0.36,0.53
3.695381,1.69,0,4,-0.27,1.69,-0.66
3.782189,-2.63,-7.49,4.51,-0.22,-0.71,-0.29
3.895939,0.78,-11.77,11.38,0.99,0.82,0.45
4.005401,-0.39,-11.26,3.41,0.58,-0.63,0.41
4.099774,7.61,-5.1,-0.47,-0.75,0.75,-0.77
4.196802,0.43,-2.59,1.14,0.5,-1.91,1.26
4.303618,1.92,-4.12,4.31,-0.13,-1.19,0.77
4.397211,0.24,-8.79,18.75,1.35,-0.24,0.6
4.499203,3.8,-11.57,2.16,0.19,1.37,0.26
4.721254,2.31,-10.12,2.59,-0.04,0.71,-0.48
4.75557,2.12,-2.51,1.33,-0.82,0.36,-0.62
4.81606,-0.04,-4.59,3.06,-0.32,0.28,-0.73
4.931754,1.29,-8.08,9.49,0.37,-1.55,0.14
5.004704,-0.08,-8.98,10.71,0.75,1.3,-0.23
5.144561,7.14,-15.53,2.35,0.71,0.12,0.62
5.214479,1.61,-2.31,2.28,-0.92,0.68,-0.38
5.329132,0.35,-2.51,0.39,0.91,-2.78,0.99
5.41449,2.43,-6.24,9.26,-0.78,0.42,0.69
5.53135,2.12,-8.79,11.61,1.25,-1.27,0.28
5.633101,7.73,-8.9,5.22,-0.11,0.73,-0.13
5.770092,0.2,-4.59,2.2,-0.02,0.04,0.61
5.836671,2.28,-1.45,3.37,-0.25,1.77,-0.92
5.933553,-2.82,-8.67,4.75,-0.37,-0.83,-0.3
6.051704,0.75,-11.1,11.92,0.3,0.59,0.26
6.142254,-1.02,-13.14,0.67,0.53,-0.11,-0.93
6.253,6.71,-3.65,3.1,-0.24,0.15,-0.32
6.341746,-1.1,-3.1,-0.35,0.58,-1.32,0.24
6.455434,5.02,-2.24,2.71,-0.31,0.41,0.28
6.550702,1.49,-11.45,13.14,0.25,0.02,-0.14
6.641447,7.1,-8.67,0.47,-1.1,1.09,-0.53
6.75347,5.88,-12.59,4.94,-1.81,2.15,-0.65
6.859242,2.31,-2.59,-0.78,-1.3,0.46,-0.13
6.974169,-1.77,-5.88,3.45,-0.29,0.56,-0.44
7.085047,1.06,-9.53,6.94,-0.6,-0.63,-0.5
7.194218,2.55,-13.3,2.16,1.15,1.13,0.24
7.253376,9.34,-8.9,3.02,0.08,0.54,-0.42
7.355944,-2,-3.92,3.73,0.87,-1.25,0.28
7.45602,0.94,-4.08,-1.41,0.7,-1.82,1.29
7.559075,1.26,-7.34,11.65,-0.34,-0.42,1.12
7.657991,2.08,-12.43,11.65,1.63,-1.88,0.55
7.757745,8.32,-5.61,3.41,0.63,-0.29,0.79
7.873385,1.77,-4.79,4.24,-0.16,-0.29,0.77
7.962438,2.35,-1.61,2.59,-0.15,1.63,-0.68
8.094462,-3.49,-7.02,4.35,-0.41,-0.54,-0.51
8.179565,1.45,-12.59,9.61,-0.11,0.06,0.37
8.276858,-0.16,-9.96,-0.04,1.75,1.76,-1.06
8.381967,6.04,-8.9,3.26,-0.85,-0.28,-0.56
8.474604,-2.39,-3.61,1.61,1.05,-1.74,0.22
8.577164,3.96,-2.39,2,-0.3,-0.42,0.58
8.682461,6.35,-10.12,14.75,1.13,-0.89,0.19
8.78719,8.16,-9.92,0.98,-0.36,0.84,-0.2
8.884566,3.14,-14.4,1.22,-1.98,2.59,0.25
8.987556,2.08,-2.75,1.96,-0.23,0.86,-0.29
9.090299,-1.29,-4.63,2.31,-0.01,0.72,-0.6
9.203189,1.1,-8.63,11.57,-1.1,-0.68,-0.29
9.354511,2.43,-10.98,11.3,1,0.89,-0.26
9.42817,7.61,-15.57,-0.51,-0.74,-1.33,-0.66
9.505462,0.39,-4.82,5.88,-0.05,-0.34,0.01
9.624913,-0.31,-3.77,-0.75,0.84,-1.67,0.28
9.703294,2.47,-5.41,5.69,-0.86,-0.43,1.06
9.807009,3.18,-11.73,9.61,1.17,-1.81,0.09
9.903986,7.96,-7.45,6.83,-0.29,0.84,0.29
10.007705,0.75,-6.94,3.69,0.79,0.81,0.74
10.110175,3.14,-2,1.69,-0.28,1.77,-0.61
10.214879,-2.39,-6.79,1.77,-0.14,0.05,-0.51
10.315035,0.35,-9.89,10.55,0.06,0.24,0.07
10.42197,0.9,-16.16,10.28,1.71,1.79,-0.21
10.548757,7.49,-10.12,3.1,-0.56,-0.6,-0.34
10.622794,-2.55,-2.86,1.14,1.22,-2.05,0.29
10.731046,4.35,-1.77,1.61,-0.1,-0.49,0.46
10.829393,-0.27,-10.32,14.24,0.06,0.2,0.25
10.943499,6.9,-11.1,2.86,1.79,-0.79,-0.04
11.034343,3.92,-11.77,2.35,-1.43,1.94,0.29
11.139684,1.06,-3.92,2.31,-0.66,0.39,0.37
11.242505,-0.08,-2.79,4,-0.04,0.53,-0.52
11.344149,-2.31,-6.98,6.67,-0.33,-0.46,-0.33
11.443881,1.18,-11.69,12.16,0.4,0.15,0.35
11.558987,5.96,-13.34,0.82,0.06,-0.43,-0.96
11.667398,2.59,-3.53,4.47,-0.07,-0.56,0.09
11.740667,-1.06,-3.02,-0.27,1.43,-1.72,0.41
11.926927,3.33,-4.16,6.83,-0.73,0,0.86
11.990153,5.22,-12.16,10.59,0.29,-1.88,-0.09
12.067926,7.1,-6.67,-0.9,-1.23,1.68,-0.23
12.165331,0.12,-8.55,2.67,0.45,0.89,0.67
12.263764,2.63,-1.84,1.77,-0.22,1.56,-0.63
12.366919,-3.3,-6.79,1.84,-0.15,-0.03,-0.48
12.467831,0.04,-9.96,11.81,0.29,0.38,0.09
12.565876,1.18,-11.49,2.31,0.7,1.16,-0.26
12.669222,6.75,-9.96,3.3,-1.03,-0.22,-0.35
12.772029,-2.71,-3.49,2.71,1.34,-1.71,0.25
12.920173,3.37,-2.47,1.49,0.27,-0.96,0.51
13.013368,1.33,-8.94,17.14,0.15,0.08,0.6
13.100738,8.51,-10.75,1.14,0.76,-0.36,-0.51
13.184864,4.28,-15.14,1.33,-1.81,2.71,0.23
13.288595,2.94,-2.31,2.39,-0.27,1.06,-0.17
13.386954,-0.82,-3.53,2.35,-0.02,0.66,-0.62
13.470484,-1.45,-7.14,10.43,-0.99,-0.58,-0.45
13.604639,4.12,-10.24,12.2,0.82,0.57,0.03
13.721796,5.53,-14.08,1.49,0.56,-1.34,-0.49
13.783976,2.94,-4,5.14,-0.51,-0.02,-0.4
13.900516,-0.55,-3.33,-1.29,0.97,-1.66,0.39
13.99942,3.53,-3.88,7.45,-0.8,0.03,0.96
14.11252,3.92,-10.55,10.9,0.37,-1.88,0.07
14.307059,7.85,-8.55,4.28,-0.7,1.23,0
14.362077,1.06,-6.04,2.86,0.08,0.71,0.52
14.424937,2.24,-1.84,2.82,-0.03,1.6,-0.7
14.512778,-2.51,-6.59,2.12,-0.19,-0.21,-0.43
14.611197,0.24,-10.67,9.26,0.28,0.11,0.12
14.715731,1.45,-9.96,5.41,0.95,1.54,-0.25
14.825141,8.43,-11.3,3.18,-1.08,-0.77,-0.46
14.923243,-2.43,-3.49,2.9,1.14,-1.69,0.43
15.028775,2.86,-3.77,1.61,0.18,-1.07,0.52
15.121949,-0.63,-9.38,13.65,-0.14,0.27,0.73
15.234098,6.59,-9.69,3.18,1.72,-0.73,0.05
15.390388,3.53,-12.71,2.47,-0.07,1.45,0.32
15.476218,1.29,-3.57,2.79,-0.24,0.36,0.29
15.535419,1.29,-2.35,2.94,-0.13,0.72,-0.59
15.633033,-2.31,-6.86,9.14,-0.46,-0.44,-0.42
15.734712,2.75,-9.77,13.53,-0.08,0.47,0.28
15.830987,-0.67,-10.16,-0.98,0.35,-0.18,-0.81
15.942652,4.82,-3.45,5.1,-0.82,0.02,-0.39
16.048616,-1.61,-4.39,0.31,1.1,-1.89,0.43
16.148121,4.98,-1.8,2.35,-0.56,-0.28,0.65
16.239145,6.9,-11.3,13.26,0.81,-0.9,0.41
16.339946,6.71,-9.77,0.35,-0.57,0.38,-0.36
16.498539,2.2,-15.26,2.24,-1.08,2.31,0.43
16.572629,2.51,-2.94,2.82,-0.14,1.32,-0.28
16.666939,-1.92,-4.98,2.31,-0.16,0.29,-0.63
16.765059,0.39,-7.92,9.34,-0.75,-0.37,-0.36
16.868449,0.98,-12.08,10.87,0.73,0.2,0.2
16.958804,8.32,-13.06,2.9,0.09,-0.88,-0.67
17.047817,0.35,-3.49,6.32,0.59,-0.97,0.09
17.149184,-1.22,-4.24,-0.59,1.05,-1.74,0.61
17.277403,3.18,-4.28,7.88,-0.86,0.37,0.92
17.374154,3.73,-10,12.4,0.46,-2.36,0.11
17.469177,5.65,-5.81,0.86,-0.83,1.15,-0.12
17.568991,1.61,-7.26,2.82,0.06,0.99,0.54
17.688478,1.92,-2.04,2.9,-0.08,1.33,-0.69
17.795958,-2.04,-6.35,1.69,-0.2,-0.02,-0.61
17.921025,0.12,-9.96,11.1,-0.23,0.05,0.09
17.996119,2.2,-12.16,6.71,0.82,1.34,-0.2
18.0669,6.86,-10.83,2.79,-0.56,-0.86,0.03
18.196246,-0.94,-3.26,5.02,1.28,-1.48,0.3
18.288544,2.63,-3.69,-0.12,0.11,-1.23,0.33
18.4171,0.55,-8.59,13.45,-0.12,0.31,0.72
18.497966,4.63,-9.61,8.43,1.87,-0.76,-0.02
18.579685,4,-11.02,2.2,-0.23,1.68,0.38
18.67739,1.06,-4.59,2.82,-0.08,0.32,0.36
18.779933,1.49,-2.2,2.79,-0.11,0.92,-0.59
18.912199,-2.63,-6.94,6.86,-0.32,-0.67,-0.35
18.996291,3.1,-10.67,12.08,0.24,0.48,0.47
19.117199,-0.04,-11.02,-1.37,0.28,0.2,-0.85
19.22692,6.24,-4.82,3.3,-1.11,0.14,-0.48
19.294951,-1.33,-3.8,-0.39,1.01,-1.66,0.38
19.424717,4.82,-1.61,2.63,-0.34,-0.37,0.55
19.564211,2.94,-10.51,12.71,0.75,-0.21,0.23
19.615887,7.26,-10.36,0.24,-0.72,0.35,-0.35
19.699078,2.04,-14.91,1.53,-1.2,2.4,0.15
19.809378,1.61,-4.2,2.2,-0.22,0.54,0.01
19.901428,-0.59,-4.35,3.41,-0.11,0.38,-0.58
20.016665,-1.8,-7.14,8.2,-0.6,-0.47,-0.24
20.107012,0.78,-9.81,13.26,0.46,0.23,0.25
20.21981,3.14,-10.83,0.39,0.14,-0.42,-0.73
20.330037,2.43,-3.73,4.43,0.23,-0.61,0.22
20.429879,-1.1,-3.96,1.1,0.93,-1.73,0.56
20.52724,4.35,-3.26,4.63,-0.89,0.33,0.75
20.638923,4.24,-10.83,10.55,0.06,-1.41,0.04
20.736123,8.2,-7.77,0.16,-1.43,1.09,-0.36
20.82547,-0.12,-10.9,4.28,-0.25,1.99,0.42
20.937397,2.55,-3.18,1.45,-0.51,0.85,-0.51
21.062154,-1.96,-5.96,2.16,-0.07,0.31,-0.6
21.163124,1.69,-8.79,11.02,-0.68,-0.43,-0.06
21.228068,1.18,-11.92,6.86,1.39,0.67,0.25
21.36865,7.3,-11.38,2.59,-0.55,-0.59,-0.39
21.468646,-0.86,-3.8,5.84,0.87,-1.21,0.27
21.552917,-0.12,-4.82,-0.43,0.78,-1.52,0.52
21.650128,1.53,-6.28,11.69,-0.99,0.59,0.93
21.78587,3.49,-10.59,13.18,0.91,-2.07,0.11
21.894156,5.88,-7.49,3.3,-0.15,1.25,0.12
21.977687,0.55,-5.3,3.18,0.16,0.31,0.57
22.053914,2.39,-2.04,2.9,-0.12,1.53,-0.68
22.157867,-3.3,-6.08,2.82,-0.22,-0.38,-0.46
22.251991,-1.65,-11.41,10.98,0.21,0.54,0.09
22.370755,1.49,-10.9,1.88,0.39,0.62,-0.45
22.46089,6.94,-9.45,4.12,-1.1,-0.1,-0.42
22.601709,-2.04,-3.06,2.16,1.22,-1.89,0.58
22.680578,4.35,-3.26,1.49,0.32,-0.8,0.51
22.770946,-2,-8.59,13.89,-0.55,0.27,0.77
22.869005,8.16,-10.67,7.3,1,-1.45,-0.11
22.969227,2.35,-13.89,2.82,0.03,1.97,0.2
23.063207,0.78,-4.75,1.53,-0.11,0.56,-0.13
23.168034,0.86,-2.47,4.16,-0.03,1,-0.39
23.276079,-2.47,-6.47,6.79,-0.27,-0.48,-0.31
23.386957,2.2,-12.28,13.14,0.1,0.13,0.47
23.48729,-0.2,-10.43,0.04,0.38,0.18,-0.69
23.575687,5.77,-5.18,4.43,-0.66,0.42,-0.42
23.671098,-1.69,-4.04,-1.02,0.88,-1.72,0.45
23.821098,4.39,-2.12,3.73,-0.19,-0.37,0.63
23.968879,5.69,-11.14,11.92,0.36,-0.88,0.2
24.058622,6.86,-10.63,-0.86,-1.21,0.76,-0.38
24.140933,1.73,-16.48,2.82,-1.08,2.35,0.39
24.226334,1.06,-3.49,2.94,-0.04,1.25,-0.12
24.322257,-0.27,-4.9,2.24,-0.02,0.53,-0.58
24.424708,-0.31,-7.57,9.22,-0.79,-0.52,-0.34
24.596949,2.79,-10.2,13.69,0.75,0.46,0.13
24.664835,2.55,-13.61,1.06,0.04,-1.14,-0.62
24.793117,1.53,-3.92,4.9,-0.46,-0.07,-0.01
24.848379,-0.27,-4.82,0.43,0.84,-2.02,0.48
24.971463,3.92,-2.39,4.79,-0.82,-0.05,0.7
25.068997,6.12,-10.28,10.16,0.16,-1.42,0.23
25.151678,5.61,-6.28,-1.14,-1.2,1.09,-0.42
25.231867,1.61,-11.69,3.41,-0.53,1.64,0.68
25.315869,1.65,-2.71,2.79,-0.15,1.58,-0.42
25.427721,-2.59,-6.32,1.41,-0.17,0.15,-0.5
25.525633,2.28,-8.98,11.02,-0.43,-0.25,-0.02
25.630822,0.67,-11.85,5.73,1.45,0.89,0.11
25.721139,6.79,-12.55,2.94,-0.5,-0.76,-0.2
25.814654,-1.77,-3.92,4.79,0.95,-1.68,0.33
25.94123,2.08,-3.1,0.2,0.53,-1.39,0.37
26.042894,0.35,-7.77,11.14,-0.63,0.49,0.83
26.177286,1.22,-10.28,12.67,1.7,-1.16,0.27
26.267422,7.53,-7.37,4.67,0.47,0.72,0.22
26.333391,-0.08,-4.79,3.1,-0.12,0.22,0.45
26.45238,1.88,-1.92,2.9,0,1.68,-0.86
26.54667,-2.51,-6.86,4,-0.43,-0.66,-0.33
26.650773,1.57,-11.38,10.28,0.22,0.42,0.22
26.771517,-1.1,-9.77,0.43,1.03,1.37,-0.47
26.851338,6.71,-8.2,5.26,-0.46,-0.5,-0.54
26.949275,-2.86,-3.41,2.28,1.35,-1.82,0.37
27.05454,5.14,-1.65,1.41,0.32,-1.11,0.32
27.148699,-1.1,-9.96,13.93,-0.13,0.23,0.74
27.2682,7.96,-9.38,4.63,1.33,-0.75,-0.45
27.355737,2.94,-14,1.92,-0.43,2.06,0.09
27.449829,1.69,-3.84,1.73,-0.48,0.25,0.31
27.558165,1.1,-2.55,3.65,0.1,0.62,-0.41
27.654204,-2.12,-7.06,9.02,-0.63,-0.75,-0.2
27.773175,2.43,-12.16,12.36,0.39,0.36,0.34
27.858286,0.63,-10,-1.49,0.36,-0.35,-1
27.973028,3.1,-4.59,4.55,-0.83,0.05,-0.45
28.07794,-0.55,-4.47,-1.1,1.1,-2.04,0.66
28.2048,4.59,-1.88,3.41,-0.88,0.3,0.64
28.276165,5.88,-12.08,10.75,0.19,-1.15,0.22
28.378335,6.39,-7.96,-1.06,-1.25,1.13,-0.51
28.475117,0.55,-10.94,2.43,-0.11,1.14,0.65
28.66059,2.39,-2.63,2.71,-0.13,1.11,-0.28
28.74104,-2.35,-5.61,1.8,0.02,0.33,-0.53
28.797562,0.43,-7.92,9.89,-0.73,-0.45,-0.21
28.893863,2.51,-12,11.1,0.81,0.45,0.24
29.012508,7.06,-13.02,1.73,-0.31,-0.79,-0.76
29.115477,-0.9,-3.61,6.35,0.6,-1.04,0.11
29.198029,0.16,-4.47,0.86,0.66,-1.52,0.41
29.298905,2.98,-6.28,9.02,-1.06,0.39,0.71
29.392168,2.67,-11.65,13.14,0.3,-1.97,0.08
29.500042,5.61,-8,2.75,-0.14,1.3,0.03
29.608392,0.43,-7.3,3.02,0,0.36,0.65
29.752238,1.88,-2.28,3.1,-0.03,1.53,-0.6
29.838991,-3.33,-6.16,2.24,-0.17,-0.34,-0.38
29.921832,0.75,-10.71,8.36,0.17,0.1,0.08
30.016521,-0.08,-10.2,2.08,1.18,1.51,-0.25
30.113562,7.02,-10.83,4.35,-0.55,-0.75,-0.14
30.231507,-2.71,-3.49,3.84,1.37,-2.03,0.34
30.332202,4.35,-2,0.71,0.45,-1,0.37
30.445413,-0.12,-8.04,12.83,-0.61,0.66,0.82
30.522508,3.22,-10.9,12.75,1.48,-1.77,-0.11
30.605559,4.43,-9.14,3.37,1.17,1.15,0.45
30.763216,1.22,-4.55,3.02,-0.32,0.06,0.51
30.860657,1.1,-2.51,3.26,0.08,0.97,-0.52
30.972837,-2.79,-6.43,5.45,-0.33,-0.37,-0.37
31.09099,0.39,-11.1,10.9,0.04,0.18,0.37
31.17659,-0.04,-9.45,0,0.64,0.86,-0.69
31.236824,6.32,-6.55,4.2,-1.01,0.1,-0.66
31.340767,-1.84,-4.55,0.31,0.89,-1.87,0.53
31.423208,4,-3.18,2.35,-0.29,-0.43,0.44
31.528053,-0.55,-9.34,12.2,0.41,0.19,0.38
31.640515,7.37,-11.61,1.22,-0.34,-0.21,-0.46
31.733369,2,-16.24,2.51,-0.81,2.78,0.48
31.840298,2.39,-4.9,1.88,-0.55,0.65,-0.14
31.935123,-0.24,-3.61,3.96,0.12,0.63,-0.55
32.092314,-2.2,-5.61,7.57,-0.62,-0.54,-0.22
32.183169,3.61,-11.77,13.61,0.07,0.21,0.34
32.256768,0.67,-11.14,-0.16,0.2,-0.48,-0.77
32.348178,2.47,-5.02,5.57,-0.87,-0.14,-0.4
32.466626,-1.33,-4.35,-0.08,0.66,-1.87,0.62
32.574103,3.84,-2.98,3.65,-0.69,0.26,0.55
32.665378,4.94,-11.22,10.4,0.37,-0.37,0.25
32.79712,5.37,-8.36,-0.08,-0.96,0.36,-0.31
32.901037,1.33,-14.51,2.98,-0.83,2.24,0.51
32.98004,2.55,-4.63,3.14,-0.43,1.47,-0.25
33.096311,-2.12,-4.9,2.43,-0.02,0.45,-0.62
33.203573,-0.51,-7.45,7.41,-0.57,-0.44,-0.29
33.331444,1.06,-11.81,11.41,0.58,0.18,0.18
33.498798,6.63,-12.71,2.43,-0.01,-0.6,-1
33.581902,0.43,-4.31,6.94,0.28,-1.15,0.03
33.664644,-1.18,-4.39,0.27,0.55,-1.73,0.54
33.733796,2.59,-4.47,6.32,-0.81,0.59,0.62
33.829935,3.61,-11.61,10.75,0.2,-1.63,0.23
33.903228,6.86,-4.39,-0.51,-0.59,0.66,-0.44
33.990533,1.22,-12.28,2.75,-0.36,1.27,0.63
34.12125,2.28,-2.79,2.55,-0.07,1.43,-0.45
34.206735,-2.47,-5.3,1.8,-0.13,-0.02,-0.48
34.29087,0.47,-8.79,9.14,-0.34,-0.19,-0.16
34.42223,0.16,-11.61,9.1,1.44,0.98,0.09
34.507232,5.69,-14.08,0.98,-0.51,-1.02,-0.17
34.763561,-0.94,-3.96,6.67,0.62,-1.24,0.38
34.827185,1.69,-4.47,1.29,0.82,-1.66,0.47
34.888901,1.96,-5.57,7.96,-1.11,0.51,0.65
34.93803,3.45,-11.45,12.12,0.18,-1.58,0.19
35.029557,4.28,-8.47,1.49,-0.52,1.37,0.01
35.106368,0.63,-7.1,3.22,0.2,0.38,0.72
35.207175,1.49,-2.59,3.45,-0.02,1.6,-0.63
35.33163,-3.1,-6.39,2.12,-0.21,-0.13,-0.5
35.411434,1.69,-11.14,8.67,0.14,0.17,0.02
35.519907,-0.24,-12.71,6.51,1.26,1.13,0.01
35.657229,5.81,-12.24,2.94,-0.62,-0.65,-0.14
35.757078,-1.88,-4.24,4,1.15,-1.73,0.52
35.853217,2.31,-4,0.78,0.09,-0.9,0.41
35.953395,-0.2,-6.94,10.24,-0.52,0.32,0.68
36.039978,5.06,-10.79,7.96,1.06,-1.54,0.23
36.128652,3.8,-9.49,3.06,0.27,0.87,0.29
36.230729,0.86,-6.04,2.67,-0.15,0.5,0.05
36.332269,0.94,-1.92,3.96,0.06,0.89,-0.54
36.445945,-3.26,-6.16,4.59,-0.22,-0.44,-0.37
36.529369,-0.35,-13.45,10.04,-0.19,0.26,0.31
36.645819,-0.04,-9.14,1.45,0.87,0.92,-0.35
36.754333,7.14,-8.32,4.31,-0.69,-0.37,-0.5
36.84942,-2.04,-4.24,1.06,1.15,-1.82,0.56
36.96679,3.77,-3.88,0.98,-0.08,-0.99,0.49
37.071523,0.16,-10.32,13.26,0.07,0.22,0.55
37.148164,7.3,-11.65,1.92,0.63,-0.13,-0.23
37.25039,2.79,-15.42,1.06,-0.85,2.44,0.25
37.336462,1.33,-3.49,3.02,-0.21,0.76,-0.14
37.457175,0.2,-3.49,2.39,0.05,0.7,-0.66
37.552017,-3.3,-6.32,7.92,-0.68,-0.7,-0.34
37.663282,2.35,-10.63,11.22,0.32,0.23,0.18
37.769428,2.08,-11.14,-0.2,0.33,-0.32,-1.08
37.853718,3.96,-4.04,3.45,-0.41,0.15,-0.41
37.971817,-1.65,-4.71,-1.18,0.8,-1.7,0.58
38.055872,3.57,-2.86,5.06,-0.78,-0.02,0.71
38.15555,4.51,-11.69,10.12,0.2,-1.39,0.17
38.316617,6.86,-9.22,0.9,-1.42,0.73,-0.46
38.413684,1.37,-13.69,2.9,-0.59,1.92,0.61
38.482704,1.41,-3.96,3.1,-0.03,1.07,-0.1
38.561833,-0.98,-4.82,2.2,0.13,0.27,-0.43
38.690871,-1.57,-7.37,8.71,-0.65,-0.47,-0.22
38.781205,2.04,-12.24,13.02,0.44,0.23,0.21
38.869047,3.77,-12.91,0.43,0.02,-0.57,-0.78
38.972753,2.71,-4.82,4.86,-0.54,0.07,-0.39
39.072896,-1.53,-3.65,-0.2,0.63,-1.62,0.5
39.177545,3.49,-3.8,5.57,-0.79,0.36,0.62
39.415705,3.1,-11.49,9.49,0.09,-1.56,0.1
39.476971,7.53,-7.53,1.49,-1.11,1.21,-0.22
39.560322,0.08,-13.3,2.2,-0.73,1.58,0.78
39.64391,2.16,-3.77,2.43,-0.48,0.63,-0.26
39.708792,-1.02,-5.53,1.02,-0.04,0.48,-0.56
39.799361,0.12,-8.59,9.26,-0.66,-0.38,-0.19
39.912169,1.61,-11.57,10.36,1.37,0.95,0.19
39.994191,5.77,-13.69,2.39,-0.14,-0.83,-0.3
40.100487,-1.06,-3.69,5.57,0.62,-1.24,0.15
40.202868,-0.31,-4.39,-0.12,0.41,-1.4,0.37
40.304061,1.77,-5.65,7.73,-0.88,0.43,0.63
40.413897,2.04,-9.69,12.79,0.93,-2.01,0.22
40.532898,6.83,-7.77,2.86,0.1,0.81,0.13
40.633008,0.16,-6.04,3.26,-0.03,0.37,0.77
40.713482,1.41,-1.73,2.63,0,1.62,-0.65
40.819563,-2.71,-6.83,2.24,-0.33,-0.49,-0.32
40.918497,-0.24,-12.43,10.04,0.01,0.25,0.05
41.024693,-0.78,-10.94,4.2,1.29,1.04,-0.36
41.118073,5.92,-12.04,3.73,-0.35,-0.82,-0.66
41.229411,-1.02,-3.45,5.73,1.11,-1.4,0.19
41.322819,2,-3.22,-0.39,0.68,-1.4,0.23
41.443885,1.45,-10.04,14.63,-0.78,0.25,1.05
41.563099,5.69,-8.04,9.81,1.87,-1.57,0.33
41.635521,3.37,-7.45,4.75,0.11,0.8,0.43
41.742124,0.2,-5.26,2.59,0.14,0.52,0.32
41.86067,2.08,-2.31,3.14,0.28,1.2,-0.42
41.950215,-2.47,-6.83,2.47,-0.18,-0.33,-0.43
42.045797,-1.92,-11.41,8.79,0.27,0.42,0.17
42.162783,-0.04,-9.18,1.33,0.57,0.57,-0.53
42.272425,6.28,-8.83,3.61,-0.56,-0.4,-0.49
42.35756,-1.8,-3.33,3.22,0.5,-1.63,0.51
42.466305,3.14,-4.35,1.29,-0.04,-0.96,0.4
42.575808,-3.1,-8.36,13.73,-0.34,0.47,0.93
42.666403,7.92,-10.28,7.45,1.49,-1.71,0.07
42.764826,2.55,-15.89,0.78,0.21,1.37,0.55
42.8594,1.26,-4.9,1.26,-0.49,0.53,-0.03
42.968875,0.39,-2.35,4.55,0.12,0.87,-0.38
43.081418,-2.86,-5.33,4.9,-0.4,-0.21,-0.46
43.185175,-2.79,-11.06,8.08,0.4,0.33,0.29
43.252385,1.1,-12.04,1.29,0.73,0.77,-0.35
43.374703,4.55,-7.45,5.73,-0.3,-0.3,-0.45
43.492987,-2.71,-4.24,-1.49,0.8,-2.39,0.45
43.593142,3.49,-1.18,1.29,-0.21,-0.51,0.63
43.676104,6.55,-12.32,11.65,0.54,-0.99,0.45
43.789895,7.73,-10,-3.22,-1.5,0.44,-0.84
43.882702,1.92,-17.85,2.71,-0.96,3.35,0.83
44.022145,3.14,-4.39,2.12,-0.53,1.09,-0.04
44.103491,-2.12,-4.2,2.31,0.09,0.51,-0.52
44.248108,-1.53,-7.14,8.51,-0.79,-0.71,-0.27
44.340186,3.61,-12.63,11.3,0.3,0.06,0.38
44.409234,0.86,-11.92,-0.94,0.01,-0.6,-0.97
44.507156,2.63,-5.88,4.24,-0.68,0.21,-0.27
44.62032,-0.67,-3.22,-0.51,0.72,-1.61,0.43
44.706741,3.22,-3.61,3.22,-0.58,0.12,0.46
44.811643,3.26,-12.08,10.79,0.28,-0.28,0.34
44.901039,4.98,-9.69,0.98,-1.15,0.99,-0.27
45.011801,0.59,-13.38,1.77,-0.37,1.98,0.64
45.122,2.35,-3.84,0.55,-0.25,0.27,-0.28
45.223571,-2.47,-5.18,4.51,0.07,0.52,-0.51
45.376019,-0.71,-7.3,6.86,-0.51,-0.43,-0.21
45.468294,0.78,-12,11.53,0.09,0.07,0.22
45.532904,4.55,-12.16,0.31,-0.35,-0.34,-1.02
45.609615,1.33,-5.65,4.35,0.01,-0.4,-0.05
45.703009,-1.1,-3.77,-0.24,0.48,-1.32,0.22
45.837044,2.79,-4.47,5.65,-0.87,0.1,0.57
45.941636,2.51,-12.24,10.43,-0.03,-1.55,0.06
46.024262,6.43,-8.87,-0.12,-0.98,1.21,0.03
46.131577,1.33,-11.1,2.04,-1.02,1.25,0.72
46.236186,0.82,-3.26,3.22,0.32,1.34,-0.01
46.332982,-2.28,-6.08,0.75,-0.13,0.09,-0.36
46.431154,1.29,-10.59,9.38,-0.53,-0.23,-0.12
46.543079,-0.16,-12.28,9.26,1.01,0.57,0.37
46.660964,4.86,-13.57,2.47,-0.02,-0.96,-0.56
46.764217,-0.63,-4.51,6.32,0.68,-1.27,0.14
46.848865,1.33,-3.65,0.2,0.51,-1.05,0.15
46.950868,1.73,-5.81,7.85,-0.91,0.4,0.58
47.043933,0.35,-11.34,12.12,0.5,-1.42,0.15
47.145105,5.49,-6.9,2.63,-0.07,0.79,0.01
47.246615,-0.43,-6.79,3.02,-0.06,0.72,0.71
47.360875,1.22,-3.65,2.75,0.09,1.27,-0.42
47.444693,-2.12,-6.79,1.14,-0.26,-0.11,-0.45
47.537228,-0.39,-10.04,9.85,-0.27,-0.26,0.03
47.666445,-0.55,-10.59,5.49,1.19,0.87,-0.23
47.878608,4.79,-13.77,2.9,-0.35,-0.16,-0.27
47.952694,-0.24,-3.88,3.88,0.64,-1.16,0.36
48.043546,1.92,-4.31,0.82,0.24,-1.04,0.19
48.099844,0.82,-6.35,8.9,-0.51,0.62,1.08
48.170598,1.06,-11.92,12.59,0.38,-1.08,0
48.272191,2.2,-7.1,3.26,0.46,0.84,0.17
48.366895,-0.31,-6.24,2.04,-0.14,0.53,0.17
48.47274,1.88,-2.63,2.86,-0.16,0.84,-0.3
48.571576,-3.22,-7.18,2.12,-0.17,-0.09,-0.39
48.662109,-0.82,-11.3,8.16,0.02,0.02,-0.03
48.784116,0.2,-12,2.55,0.89,0.97,-0.56
48.867318,4.67,-10.83,3.84,-0.6,-0.1,-0.49
48.970909,-1.45,-4.2,1.69,1.26,-1.85,0.32
49.125849,2.28,-3.18,1.37,0.11,-0.6,0.26
49.231048,-1.96,-10.59,12.16,-0.32,0.21,0.88
49.288175,6.04,-10.87,4.31,1.67,-1.15,-0.21
49.379882,3.18,-11.34,1.45,0.31,1.65,0.46
49.484292,1.37,-5.18,1.73,-0.43,0.6,0.24
49.592917,0.04,-3.69,3.41,0.37,0.61,-0.39
49.708314,-3.14,-5.92,5.84,-0.46,-0.38,-0.36
49.833836,1.06,-11.92,11.3,-0.08,0.25,0.4
49.917207,0.39,-10.04,-0.39,0.53,0.02,-0.8
49.990444,4.28,-5.41,3.92,-0.73,-0.14,-0.28
50.110107,-1.22,-4.12,-1.02,0.72,-1.89,0.5
50.265503,3.3,-2.98,2.43,-0.59,-0.23,0.68
50.345281,4.63,-12.32,10.12,0.34,-0.62,0.3
50.408238,7.73,-13.42,-2.39,-0.59,1.3,-0.27
50.500332,0.39,-16.2,2.59,-0.49,2.62,0.89
50.600595,2.24,-3.84,2.98,-0.38,1.27,-0.27
50.7117,-1.8,-4.94,-0.12,-0.05,0.49,-0.68
50.835611,-0.55,-9.49,10,-1.02,-0.69,-0.38
50.92338,0.47,-13.06,9.69,0.64,0.34,0.14
51.019129,1.96,-14.08,-0.59,0.32,-0.6,-0.87
51.117034,0.47,-4.94,5.69,-0.28,-0.37,-0.24
51.222751,-0.67,-3.77,-0.78,0.64,-1.57,0.4
51.439926,2.98,-4.75,5.26,-0.72,0.09,0.69
51.507593,2.9,-11.65,9.61,0.33,-1.52,0.19
51.564795,6.08,-4.24,-1.92,-1.55,0.94,-0.37
51.652128,0.04,-12.43,3.26,-0.76,1.55,0.7
51.733423,1.41,-4.31,2.24,-0.24,1.49,-0.17
51.82676,-2.79,-5.37,1.29,-0.07,0.13,-0.42
51.9423,0.51,-9.73,8.9,-0.35,-0.36,-0.1
52.049084,0.59,-12,8.59,1.55,1.07,0.07
52.142972,4,-12.98,2,-0.07,-0.93,-0.06
52.252249,-2.08,-3.96,6.94,1.28,-1.77,0.11
52.354736,0.9,-2.94,0.12,0.24,-0.68,0.19
52.457394,1.33,-7.02,9.49,-0.75,0.34,0.66
52.560729,3.26,-10.08,11.77,0.84,-1.96,0.12
52.695724,4.16,-9.06,3.73,0.39,0.8,0.11
52.779925,0.63,-5.3,2.9,-0.19,0.25,0.42
52.891603,1.26,-2.9,2.39,0.12,1.11,-0.52
52.97614,-3.02,-6.12,3.1,-0.25,-0.29,-0.38
53.046517,-0.67,-12.08,8.51,0.02,0.1,0.16
53.171081,0,-9.49,1.1,1.01,1.06,-0.39
53.268066,5.77,-10.47,4.9,-0.85,-0.37,-0.39
53.376564,-0.98,-4.28,0.67,0.98,-1.94,0.38
53.462834,3.53,-3.22,1.88,-0.21,-0.54,0.43
53.57573,-1.1,-11.14,10.63,-0.03,0.11,0.58
53.689387,6.2,-11.53,2.9,1,-0.55,0.02
53.787041,3.02,-10.79,1.45,0.07,1.28,0.6
53.864184,1.33,-4.98,2.51,-0.12,0.57,0.12
53.969723,0.27,-3.37,3.33,0.19,0.78,-0.53
54.08216,-2.98,-6.63,3.73,-0.29,-0.32,-0.4
54.185107,0.71,-11.73,10,-0.11,-0.13,0.21
54.281401,-1.14,-9.85,-0.35,0.56,0.33,-0.41
54.372993,5.73,-9.53,4.55,-0.64,-0.07,-0.77
54.504184,-1.49,-4.39,0.86,0.93,-2.05,0.68
54.584193,3.41,-3.22,1.61,-0.06,-0.73,0.26
54.685081,-1.92,-10.47,11.45,-0.35,0.06,0.54
54.804918,8.08,-11.53,1.37,1.19,-1.21,-0.11
54.945938,2.28,-12.36,0.67,-0.63,1.59,0.42
55.04984,1.96,-5.22,1.8,-0.24,0.67,0.22
55.146475,-0.04,-3.61,3.1,0.44,0.64,-0.32
55.237768,-2.2,-6.28,6.2,-0.59,-0.36,-0.41
55.321909,-1.49,-13.85,8.83,0.18,0.57,0.13
55.415248,1.29,-9.81,-0.27,0.59,0.43,-0.96
55.494794,2.55,-6.59,7.26,-0.63,-0.54,-0.39
55.604658,-1.69,-5.02,-0.59,0.56,-1.49,0.3
55.70279,3.8,-3.73,2.12,-0.36,-0.07,0.37
55.806567,3.26,-12.04,9.49,0.63,-0.3,0.31
55.905911,7.18,-13.22,-0.08,-0.87,0.5,-0.39
56.024085,0.67,-16.36,1.57,-1.02,3.07,0.97
56.125759,1.37,-5.14,1.61,-0.34,0.72,-0.13
56.216557,-0.47,-4,2.43,0.31,0.51,-0.63
56.349562,-2.31,-6.51,7.34,-0.59,-0.25,-0.4
56.444164,1.26,-12.67,9.45,0.29,0.19,0.24
56.519691,-0.24,-11.1,-0.04,0.75,0.19,-0.27
56.644918,4.12,-6.59,2.63,-0.91,0.23,-0.78
56.731965,-2.31,-2.9,2.12,1.28,-1.82,0.52
56.870069,2.75,-3.84,3.1,-0.31,-0.03,0.34
56.978871,3.33,-11.92,9.34,0.55,-0.37,0.26
57.063067,6.71,-12,-0.04,-1.14,0.42,-0.52
57.131803,1.73,-18.08,2.71,-1.17,2.79,0.33
57.232662,2,-4.98,2.2,-0.26,0.54,0.08
57.363903,-1.33,-4.67,2.39,0.19,0.23,-0.3
57.571707,-2.63,-6.9,6.94,-0.39,-0.3,-0.28
57.648084,1.77,-12.51,11.18,0.17,0.03,0.21
57.710504,2,-11.73,-0.24,0.32,-0.8,-0.59
57.774412,1.88,-5.53,6.12,-0.31,-0.64,-0.2
57.850386,0.2,-4.59,0.2,0.53,-1.78,0.29
57.949533,3.18,-3.73,3.57,-0.66,0.37,0.55
58.08246,2.35,-12.36,8.39,0.34,-0.51,0.29
58.174201,5.73,-9.22,-0.04,-1.31,0.54,-0.47
58.253558,0.51,-16.75,2.79,-0.69,2.37,0.48
58.369529,2.12,-4.35,2.16,-0.17,1.09,-0.26
58.459113,-1.14,-4.51,2.63,0.33,0.21,-0.29
58.555274,-1.69,-7.18,7.96,-0.61,-0.3,-0.3
58.666457,0.94,-11.92,10.4,0.12,0.1,0.15
58.760126,0.24,-10.43,0.86,0.42,-0.3,-0.44
58.881335,3.45,-5.22,2.47,-0.78,0.17,-0.5
58.972075,-1.49,-4.63,0.24,0.58,-1.62,0.38
59.096979,3.45,-3.65,2.71,-0.39,0.29,0.37
59.176903,2.12,-12.32,8.43,0.44,0.38,0.23
59.274932,6.32,-11.45,0.16,-0.59,-0.19,-0.39
59.378191,0.75,-16.67,3.3,-1.06,2.54,0.32
59.493686,2.35,-4.79,3.06,0,0.86,0.19
59.588343,-0.78,-5.02,2,0.34,0.28,-0.29
59.679398,-2.9,-5.73,6.32,-0.43,-0.29,-0.24
59.793651,-0.94,-11.92,9.18,0,0.03,0.14
59.988766,-0.75,-8.36,0.67,0.73,0.5,-0.33
60.058608,6.75,-8.12,5.18,-0.81,0.48,-0.78
60.145618,-2.12,-4.63,0.16,0.47,-1.88,0.44
60.212956,3.3,-2.98,2.04,-0.22,-0.12,0.44
60.294733,-2.28,-9.41,9.49,0.13,0.47,0.34
60.395494,6.67,-11.65,6.43,0.68,-1.29,-0.14
60.499374,1.49,-12.59,1.33,0.48,1.12,0.28
60.613909,2.08,-6.2,3.41,-0.17,0.41,0.29
60.712185,-0.59,-4.63,3.02,0.37,0.9,-0.52
60.825402,-1.69,-5.37,3.49,-0.35,-0.04,-0.45
60.94734,-1.49,-10.55,7.92,0.23,0.19,-0.02
61.028108,1.1,-12,2.79,0.55,0.66,-0.16
61.124856,5.02,-11.73,4.67,-0.34,0.03,-0.4
61.21273,-2.59,-5.49,4.16,1.09,-1.54,0.39
61.322881,2.24,-4,1.37,0.22,-1.14,0.25
61.463941,0.71,-5.45,8.12,-0.39,0.65,0.8
61.554282,3.8,-12.28,9.26,0.51,-1.2,0.48
61.631297,-0.75,-8.28,0.9,0.21,0.03,0.23
61.734444,1.88,-9.06,3.8,-0.32,0.38,0.26
61.839537,0.35,-7.45,2.86,-0.26,0.43,0.15
61.929854,0.35,-8.43,3.18,-0.17,0.23,-0.06
62.021438,0.04,-7.88,4.39,0.07,0.25,-0.18
62.144533,0.08,-9.02,3.02,0.06,0.18,-0.21
62.233019,0.27,-8.71,3.49,-0.03,-0.03,-0.2
62.414856,1.41,-8.2,4.63,-0.13,-0.06,-0.08
62.499133,0.75,-8.28,4.12,-0.07,-0.08,-0.08
62.577412,1.22,-8.08,4.12,-0.03,-0.1,-0.05
