NAME:,walk_123_5_1,,,,,
EXPERIMENT TIME:,08/03/2024 09:38:01,,,,,
ACTIVITY TYPE:,Walking,,,,,
COUNT OF ACTUAL STEPS:,120,,,,,
,,,,,,
Time [sec],ACC X,ACC Y,ACC Z,GYRO X,GYRO Y,GYRO Z
.0000,-10.51,4.35,4.43,-0.47,0.24,-0.78
.0820,-10.51,5.45,3.84,-0.00,-0.03,-0.58
.1640,-8.47,2.43,2.20,-0.02,0.30,0.23
.2460,-8.04,3.18,2.04,-0.38,0.31,0.30
.3280,-8.59,3.10,1.84,-0.34,0.07,0.23
.4100,-8.90,2.04,1.53,-0.44,-0.10,0.14
.4920,-9.18,3.02,1.92,-0.71,-0.15,0.08
.5740,-11.30,2.55,1.02,-0.48,-0.03,0.09
.6560,-9.81,1.88,0.67,-0.79,0.69,0.15
.7380,-12.98,11.18,8.20,0.75,-0.63,0.40
.8200,-7.10,1.41,3.92,-0.12,0.48,-0.12
.9020,-8.90,4.98,4.47,-0.01,-0.52,0.12
.9840,-8.39,2.79,3.57,0.21,-0.30,-0.15
1.0660,-8.16,2.82,3.22,0.18,-0.40,0.14
1.1480,-8.67,3.26,2.94,0.33,-0.21,0.13
1.2300,-9.06,3.37,2.35,0.52,-0.08,0.25
1.3120,-10.20,2.51,1.96,0.64,0.04,-0.07
1.3940,-11.57,4.67,2.94,0.17,0.17,-0.36
1.4760,-10.04,5.84,4.43,-0.40,0.26,-0.69
1.5580,-9.14,4.00,3.26,0.03,0.07,-0.42
1.6400,-9.73,3.77,3.10,0.12,0.01,-0.07
1.7220,-8.32,3.33,2.00,-0.11,0.10,0.13
1.8040,-8.00,2.75,1.57,-0.17,-0.09,0.16
1.8860,-8.55,2.90,1.49,-0.27,-0.21,-0.06
1.9680,-9.53,2.79,1.61,-0.38,-0.21,-0.07
2.0500,-11.26,2.51,0.24,-0.20,-0.09,-0.08
2.1320,-9.81,1.92,0.27,-0.57,0.66,-0.07
2.2140,-16.79,7.96,10.67,1.35,-0.84,0.82
2.2960,-2.00,2.55,2.28,-0.90,0.71,0.05
2.3780,-9.49,4.63,4.94,0.41,-0.84,-0.11
2.4600,-8.71,1.96,3.49,0.32,-0.36,-0.19
2.5420,-8.67,3.45,2.98,0.09,-0.31,0.11
2.6240,-8.51,2.94,2.75,0.45,-0.32,0.02
2.7060,-9.92,2.16,2.16,0.65,-0.17,0.09
2.7880,-9.81,3.26,1.65,0.36,0.09,-0.15
2.8700,-11.14,4.59,4.75,0.73,0.09,-0.51
2.9520,-8.98,6.75,6.43,-0.18,0.17,-0.97
3.0340,-9.53,3.18,3.77,0.51,-0.03,-0.07
3.1160,-7.53,3.30,2.24,0.13,0.07,0.13
3.1980,-7.61,3.14,2.28,0.00,0.04,0.21
3.2800,-8.59,2.63,1.88,-0.11,-0.11,0.06
3.3620,-9.53,1.80,1.33,-0.36,-0.08,0.01
3.4440,-9.73,3.02,2.28,-0.59,0.13,0.00
3.5260,-10.40,1.10,0.04,-0.35,0.43,-0.05
3.6080,-13.89,10.28,10.24,-0.03,-0.67,0.38
3.6900,-7.02,0.90,3.45,-0.16,0.82,-0.17
3.7720,-7.92,5.06,4.47,-0.31,-0.23,0.28
3.8540,-8.20,3.14,3.73,0.28,-0.53,-0.23
3.9360,-8.20,1.77,2.82,0.40,-0.36,0.09
4.0180,-9.02,2.55,2.59,0.13,-0.25,0.21
4.1000,-8.79,2.51,1.80,0.39,0.04,0.25
4.1820,-10.28,1.92,1.69,0.57,0.10,0.16
4.2640,-11.53,4.59,3.26,0.13,0.21,-0.18
4.3460,-9.41,6.16,5.92,-0.57,0.34,-1.08
4.4280,-12.98,3.69,4.28,0.19,-0.21,-0.67
4.5100,-7.53,2.39,2.12,-0.29,0.36,0.43
4.5920,-6.86,3.18,2.04,-0.27,0.16,0.45
4.6740,-7.22,2.12,1.37,-0.41,-0.08,0.25
4.7560,-10.00,1.02,1.33,-0.59,-0.23,0.07
4.8380,-11.73,5.06,1.65,-0.31,-0.01,-0.08
4.9200,-12.32,4.67,7.85,-0.20,0.17,0.17
5.0020,-5.61,2.75,3.45,0.41,1.44,0.11
5.0840,-7.45,5.26,5.02,-0.63,-0.30,0.26
5.1660,-7.81,2.71,3.45,0.14,-0.36,-0.15
5.2480,-7.45,1.88,2.47,-0.04,-0.23,0.15
5.3300,-8.63,2.71,2.51,0.13,-0.07,0.30
5.4120,-9.49,2.59,2.75,0.39,0.14,0.25
5.4940,-10.83,0.51,0.94,0.37,0.13,0.03
5.5760,-11.26,4.43,3.30,0.08,0.17,-0.21
5.6580,-9.53,7.69,7.02,-1.35,0.29,-0.98
5.7400,-11.34,3.10,3.80,0.28,0.00,-0.30
5.8220,-7.49,2.08,1.84,-0.68,0.51,0.36
5.9040,-7.34,2.55,1.29,-0.69,0.34,0.49
5.9860,-6.67,1.57,1.06,-0.82,0.24,0.32
6.0680,-9.45,3.26,1.77,-1.08,-0.13,0.22
6.1500,-13.57,1.41,-0.63,0.06,-0.06,0.05
6.2320,-15.69,7.49,8.63,-0.29,-0.69,0.49
6.3140,-7.53,2.98,5.06,-0.06,0.69,0.22
6.3960,-8.87,5.41,4.51,-0.35,-0.34,-0.07
6.4780,-8.20,1.69,2.86,0.29,-0.20,-0.29
6.5600,-7.18,2.31,1.92,0.08,-0.36,0.19
6.6420,-8.43,2.20,1.69,0.48,-0.23,0.37
6.7240,-10.71,3.22,0.82,0.84,-0.08,0.20
6.8060,-11.96,5.33,3.18,-0.67,0.36,-0.27
6.8880,-8.79,7.65,6.55,-0.51,0.33,-1.09
6.9700,-12.04,2.82,3.88,0.45,-0.09,-0.25
7.0520,-7.92,1.84,1.61,-0.22,0.38,0.30
7.1340,-6.51,2.75,1.33,-0.42,0.18,0.47
7.2160,-6.59,1.69,0.63,-0.62,0.06,0.22
7.2980,-10.67,4.04,2.75,-1.03,-0.20,-0.10
7.3800,-12.94,1.02,0.47,0.37,0.16,-0.16
7.4620,-13.96,8.79,4.63,0.84,-0.57,0.50
7.5440,-8.43,2.43,5.45,-0.26,0.31,0.12
7.6260,-7.85,3.92,4.20,-0.45,-0.28,0.16
7.7080,-7.96,2.63,3.41,-0.04,-0.40,-0.02
7.7900,-7.41,2.12,2.43,0.01,-0.23,0.16
7.8720,-8.55,2.47,2.08,0.36,0.13,0.24
7.9540,-9.57,2.71,2.43,0.59,0.17,0.14
8.0360,-11.49,2.28,0.94,0.41,0.11,-0.16
8.1180,-8.90,3.69,6.08,-1.26,0.39,-0.55
8.2000,-10.40,7.96,5.73,-0.72,0.47,-0.84
8.2820,-9.30,2.31,2.20,0.13,0.21,0.20
8.3640,-7.96,1.65,1.49,-0.42,0.18,0.43
8.4460,-7.30,2.20,1.53,-0.65,-0.07,0.45
8.5280,-9.02,2.00,0.67,-0.71,-0.01,0.14
8.6100,-10.16,4.04,2.82,-0.55,-0.11,-0.20
8.6920,-12.67,-0.39,-0.08,0.01,0.69,-0.09
8.7740,-10.40,10.75,6.35,0.76,-0.46,0.58
8.8560,-8.16,4.16,5.33,-0.52,0.33,0.23
8.9380,-9.57,4.24,4.12,0.54,-0.42,-0.36
9.0200,-7.10,2.39,2.20,0.34,-0.26,-0.19
9.1020,-8.00,2.20,1.77,0.58,-0.49,0.09
9.1840,-8.83,2.43,1.88,0.66,-0.26,0.19
9.2660,-10.83,1.65,0.35,0.63,0.03,-0.03
9.3480,-11.53,6.00,2.67,0.72,-0.09,-0.42
9.4300,-9.73,6.55,7.45,-0.57,0.22,-1.16
9.5120,-11.85,3.45,3.61,0.57,-0.16,-0.39
9.5940,-7.53,2.63,1.88,-0.04,0.12,0.34
9.6760,-6.98,2.31,1.10,-0.19,0.04,0.43
9.7580,-7.34,1.96,0.75,-0.40,-0.04,0.14
9.8400,-9.77,2.90,1.49,-0.75,-0.02,-0.07
9.9220,-12.63,1.37,-0.75,0.43,-0.02,-0.03
10.0040,-12.67,6.28,6.79,-0.57,-0.26,0.47
10.0860,-6.39,1.80,3.37,0.76,1.10,-0.03
10.1680,-9.49,5.81,5.77,-0.84,-0.44,0.30
10.2500,-8.51,2.43,2.82,0.11,0.04,-0.20
10.3320,-7.85,2.28,1.80,-0.11,-0.10,0.02
10.4140,-6.79,1.96,1.33,0.15,-0.12,0.34
10.4960,-9.02,2.43,1.29,0.49,-0.11,0.20
10.5780,-10.75,3.26,0.43,-0.01,0.08,-0.12
10.6600,-11.57,3.49,6.12,-0.25,0.25,-0.88
10.7420,-11.38,4.82,4.71,0.30,-0.10,-0.86
10.8240,-10.55,3.26,3.06,-0.12,0.10,0.11
10.9060,-8.04,1.96,1.84,-0.43,0.19,0.41
10.9880,-6.39,1.92,0.94,-0.60,0.03,0.38
11.0700,-8.04,1.41,1.02,-0.66,-0.28,0.16
11.1520,-10.28,3.06,1.18,-0.22,-0.17,0.08
11.2340,-12.43,2.31,4.00,-0.53,0.60,-0.13
11.3160,-10.12,3.77,5.06,0.56,0.63,0.53
11.3980,-9.49,4.90,5.22,-1.08,0.40,0.37
11.4800,-9.53,2.98,3.33,-0.24,0.09,-0.09
11.5620,-7.61,2.47,2.35,-0.40,0.11,0.20
11.6440,-7.10,1.84,1.53,-0.25,-0.06,0.16
11.7260,-8.63,1.49,1.18,0.02,0.15,0.21
11.8080,-9.57,2.39,0.51,-0.26,0.24,0.09
11.8900,-12.04,3.10,7.18,-0.65,-0.25,-0.53
11.9720,-8.43,5.45,3.77,-0.37,0.38,-0.48
12.0540,-10.28,3.18,3.88,-0.46,0.22,0.29
12.1360,-8.28,2.51,2.59,-0.76,0.31,0.36
12.2180,-7.61,2.67,2.00,-1.01,0.16,0.45
12.3000,-8.47,2.08,2.08,-0.99,-0.10,0.31
12.3820,-10.36,3.80,2.24,-1.13,-0.11,0.28
12.4640,-9.14,3.30,1.80,-1.01,0.25,0.12
12.5460,-10.59,2.43,5.14,-0.52,-0.14,0.12
12.6280,-4.55,2.94,2.16,-0.05,1.12,1.06
12.7100,-10.24,2.82,6.39,-0.85,-0.22,0.03
12.7920,-7.61,2.75,4.43,-0.64,-0.23,0.19
12.8740,-9.38,3.41,5.26,-0.33,-0.19,0.35
12.9560,-8.79,3.53,4.31,-0.16,0.22,0.11
13.0380,-8.47,2.39,4.16,-0.05,0.36,-0.03
13.1200,-8.79,3.65,4.31,-0.12,0.20,0.01
13.2020,-8.75,3.37,4.35,-0.09,0.11,-0.01
13.2840,-8.67,3.22,3.69,-0.01,0.12,-0.01
13.3660,-9.18,3.18,3.73,-0.05,0.08,0.05
13.4480,-9.34,3.22,3.49,-0.05,0.09,0.03
13.5300,-9.34,3.22,3.26,-0.07,0.16,0.06
13.6120,-9.14,3.22,3.02,-0.12,0.18,0.10
13.6940,-9.10,3.57,2.86,-0.21,0.23,0.12
13.7760,-8.87,3.77,3.18,-0.14,0.21,0.15
13.8580,-8.94,4.04,3.26,-0.11,0.06,0.13
13.9400,-9.10,4.08,3.33,0.02,-0.05,0.11
14.0220,-8.90,3.80,3.06,0.06,-0.18,0.16
14.1040,-8.59,3.57,3.02,0.04,-0.09,0.10
14.1860,-8.83,4.04,3.22,0.05,-0.08,0.12
14.2680,-8.67,3.77,3.02,0.15,-0.01,-0.06
14.3500,-9.41,3.80,3.30,0.12,-0.05,-0.07
14.4320,-8.94,3.88,3.14,0.07,-0.05,-0.05
14.5140,-9.02,3.84,3.30,0.03,-0.01,-0.03
14.5960,-8.47,3.80,3.10,-0.02,0.01,-0.00
14.6780,-9.06,4.28,3.45,-0.06,-0.05,-0.02
14.7600,-8.79,4.47,3.33,0.06,-0.07,-0.05
14.8420,-9.14,3.61,2.90,0.25,-0.13,-0.08
14.9240,-9.06,3.96,2.75,0.16,-0.14,0.03
15.0060,-8.67,3.73,2.31,0.22,-0.16,-0.03
15.0880,-8.83,3.65,2.24,0.08,-0.27,-0.07
15.1700,-9.41,3.37,2.31,0.03,-0.26,-0.17
15.2520,-9.45,3.45,2.16,-0.06,-0.13,-0.18
15.3340,-10.63,3.73,3.06,-0.06,-0.04,-0.27
15.4160,-10.28,5.02,4.90,0.41,-0.05,0.10
15.4980,-6.79,2.43,3.33,-0.16,0.13,-0.06
15.5800,-9.38,3.92,5.06,0.08,-0.30,0.05
15.6620,-8.59,3.53,4.51,0.11,-0.21,-0.30
15.7440,-8.63,2.12,3.06,0.28,-0.21,-0.26
15.8260,-9.26,2.55,3.53,0.22,-0.21,-0.04
15.9080,-9.22,2.71,3.14,0.35,-0.16,0.06
15.9900,-9.65,2.67,3.06,0.47,-0.11,0.06
16.0720,-11.41,3.49,3.57,0.54,-0.29,0.03
16.1540,-11.38,3.45,3.96,0.27,0.11,-0.65
16.2360,-8.75,5.53,5.06,-0.41,0.31,-0.45
16.3180,-9.96,3.53,4.90,0.75,-0.03,-0.05
16.4000,-6.35,3.10,1.92,0.43,0.17,0.16
16.4820,-6.35,1.73,0.90,0.06,0.11,0.12
16.5640,-8.43,1.37,0.94,-0.41,0.12,-0.07
16.6460,-13.38,3.96,1.61,-0.64,0.07,-0.09
16.7280,-12.43,5.33,5.06,-0.11,0.43,-0.07
16.8100,-5.84,3.65,3.57,0.88,1.04,0.05
16.8920,-6.67,4.08,4.31,-0.59,-0.26,0.07
16.9740,-6.67,3.10,3.37,0.50,-0.47,-0.38
17.0560,-7.14,1.69,3.41,0.35,-0.34,-0.10
17.1380,-8.90,2.51,3.06,0.42,-0.15,0.16
17.2200,-8.71,2.86,2.51,0.53,0.32,0.12
17.3020,-12.55,2.98,1.14,0.53,-0.10,-0.08
17.3840,-11.14,4.51,3.30,-0.14,0.24,-0.25
17.4660,-10.67,7.53,7.30,-0.96,-0.34,-0.84
17.5480,-9.96,3.02,4.28,0.42,0.26,0.17
17.6300,-5.96,2.00,1.49,-0.21,0.44,0.49
17.7120,-6.04,2.55,1.96,-0.31,-0.12,0.39
17.7940,-8.59,2.43,1.18,-0.46,0.06,0.05
17.8760,-11.49,3.30,3.33,-0.73,0.18,-0.06
17.9580,-12.08,2.47,5.53,0.03,0.35,-0.16
18.0400,-7.92,5.88,3.45,0.64,0.93,0.26
18.1220,-7.88,3.22,5.30,-0.66,-0.22,0.21
18.2040,-7.26,3.10,3.53,0.01,-0.39,-0.20
18.2860,-6.55,2.31,3.10,-0.14,-0.30,0.13
18.3680,-8.94,3.30,3.49,0.22,-0.04,0.15
18.4500,-9.26,2.39,1.84,0.57,0.28,0.04
18.5320,-12.59,3.14,1.33,0.47,-0.08,-0.08
18.6140,-10.28,4.47,4.24,0.10,0.15,-0.30
18.6960,-10.83,6.20,6.63,-0.84,-0.36,-0.92
18.7780,-9.85,2.47,3.41,0.27,0.36,0.23
18.8600,-6.51,2.43,2.00,-0.32,0.32,0.62
18.9420,-6.55,2.59,1.92,-0.43,0.02,0.45
19.0240,-9.10,1.88,0.82,-0.65,0.16,0.14
19.1060,-12.00,3.61,3.02,-0.62,0.08,0.04
19.1880,-14.04,2.75,5.41,-0.18,0.64,-0.04
19.2700,-4.04,4.28,2.31,0.30,0.84,-0.08
19.3520,-8.75,4.59,5.22,-0.49,-0.29,0.12
19.4340,-6.32,2.94,3.02,-0.15,-0.44,-0.13
19.5160,-6.90,2.51,3.18,-0.15,-0.31,0.15
19.5980,-8.55,3.33,3.10,0.26,0.11,0.12
19.6800,-10.51,1.73,1.45,0.51,0.17,-0.06
19.7620,-12.94,3.10,1.88,0.39,-0.18,0.01
19.8440,-9.77,4.98,4.39,-0.86,0.48,-0.55
19.9260,-9.92,6.63,6.00,-0.81,-0.16,-0.49
20.0080,-8.24,3.30,3.80,0.44,0.30,0.12
20.0900,-6.24,2.51,1.26,0.13,0.17,0.34
20.1720,-7.18,2.31,1.61,0.01,-0.12,0.17
20.2540,-9.26,2.24,1.26,-0.29,0.10,-0.14
20.3360,-12.55,4.04,1.06,-0.55,-0.01,0.01
20.4180,-11.69,4.94,5.02,-0.01,0.11,-0.06
20.5000,-5.33,3.96,2.00,0.61,1.02,-0.02
20.5820,-7.34,4.28,4.20,0.00,-0.42,0.24
20.6640,-7.45,3.37,3.26,0.27,-0.47,-0.35
20.7460,-7.18,1.69,2.94,0.40,-0.47,-0.07
20.8280,-8.16,3.22,3.10,0.23,-0.24,0.00
20.9100,-10.04,2.51,2.08,0.62,0.20,0.03
20.9920,-11.41,2.75,1.22,0.42,-0.09,-0.02
21.0740,-11.41,2.59,1.57,0.83,-0.02,-0.29
21.1560,-8.94,4.98,5.96,-1.69,0.21,-0.86
21.2380,-11.34,5.30,4.71,0.21,-0.11,-0.48
21.3200,-7.73,2.28,2.00,-0.07,0.46,0.24
21.4020,-6.35,2.16,1.45,-0.20,0.22,0.58
21.4840,-6.32,2.43,1.06,-0.63,0.07,0.27
21.5660,-9.96,2.08,0.98,-0.39,-0.07,-0.05
21.6480,-12.71,3.45,0.94,-0.31,-0.06,0.06
21.7300,-12.63,3.10,3.26,-0.42,0.19,0.26
21.8120,-4.90,3.18,2.75,0.71,1.06,0.00
21.8940,-7.49,5.26,5.02,-0.49,-0.31,0.19
21.9760,-7.57,3.14,3.73,0.29,-0.38,-0.32
22.0580,-6.83,1.57,2.71,0.34,-0.35,0.00
22.1400,-8.12,3.45,2.94,0.43,-0.45,0.27
22.2220,-10.40,2.71,2.39,0.93,0.17,0.08
22.3040,-11.26,2.59,1.22,0.37,0.06,-0.11
22.3860,-10.90,4.12,3.88,-0.00,0.38,-0.47
22.4680,-9.96,7.10,6.20,-0.90,0.31,-0.83
22.5500,-10.55,2.47,3.53,0.61,0.13,-0.05
22.6320,-7.73,2.12,1.57,-0.40,0.37,0.40
22.7140,-6.35,2.31,0.94,-0.43,0.04,0.42
22.7960,-7.92,1.65,0.67,-0.75,0.02,0.21
22.8780,-10.90,3.77,4.16,-0.91,-0.18,-0.08
22.9600,-12.67,1.10,2.63,-0.02,0.60,-0.01
23.0420,-11.45,7.88,4.63,0.45,-0.20,0.58
23.1240,-8.32,2.28,5.37,-0.16,0.01,-0.05
23.2060,-7.96,4.04,3.61,-0.29,-0.44,-0.02
23.2880,-7.57,1.96,3.18,0.03,-0.34,0.06
23.3700,-8.12,2.82,3.18,0.04,-0.31,0.26
23.4520,-9.34,2.28,2.08,0.29,0.09,0.14
23.5340,-11.22,2.20,1.77,0.68,0.06,0.13
23.6160,-11.69,3.30,2.28,0.53,0.12,-0.34
23.6980,-8.12,5.14,6.94,-1.24,0.10,-0.72
23.7800,-11.22,6.00,4.71,-0.10,0.04,-0.55
23.8620,-8.08,1.73,1.96,-0.15,0.44,0.26
23.9440,-7.06,2.59,1.80,-0.47,0.20,0.50
24.0260,-7.10,2.55,1.37,-0.61,-0.00,0.29
24.1080,-9.34,2.08,1.26,-0.64,-0.10,0.06
24.1900,-13.34,2.82,0.98,-0.32,-0.23,-0.00
24.2720,-10.43,1.49,3.45,-0.76,0.65,0.15
24.3540,-8.43,6.04,4.28,0.78,0.91,0.11
24.4360,-8.51,4.63,5.37,-0.77,-0.15,0.18
24.5180,-7.81,3.30,3.41,0.14,-0.40,-0.28
24.6000,-6.67,1.96,2.90,0.15,-0.30,0.04
24.6820,-8.63,2.67,2.39,0.44,-0.27,0.20
24.7640,-9.61,2.51,2.20,0.61,0.08,0.17
24.8460,-11.69,2.08,0.71,0.19,0.06,-0.11
24.9280,-11.61,4.51,5.37,-0.10,0.15,-0.60
25.0100,-8.87,7.06,5.22,-0.56,0.29,-0.82
25.0920,-10.08,3.45,3.80,0.79,-0.13,0.09
25.1740,-7.69,1.88,1.02,0.38,0.16,0.14
25.2560,-6.55,2.08,0.78,0.11,-0.12,0.21
25.3380,-8.55,2.04,0.78,-0.20,-0.14,-0.07
25.4200,-10.90,3.92,2.16,-0.48,-0.18,-0.10
25.5020,-12.40,1.26,0.90,-0.05,0.51,-0.01
25.5840,-15.02,8.79,4.12,1.02,-0.08,0.29
25.6660,-7.88,3.18,5.65,-0.22,-0.05,0.11
25.7480,-8.51,4.39,4.16,0.04,-0.52,-0.29
25.8300,-8.16,2.31,3.06,0.34,-0.33,-0.08
25.9120,-7.92,2.82,2.71,0.12,-0.28,0.16
25.9940,-8.55,2.24,2.20,0.38,-0.07,0.16
26.0760,-9.30,2.94,2.20,0.79,0.19,0.22
26.1580,-11.45,2.55,1.22,0.22,0.05,-0.09
26.2400,-11.02,4.16,3.18,0.22,0.26,-0.24
26.3220,-9.45,6.83,6.90,-1.15,0.24,-1.01
26.4040,-10.94,3.30,3.33,0.59,-0.06,-0.12
26.4860,-7.88,2.79,2.08,-0.28,0.26,0.34
26.5680,-7.26,2.90,1.96,-0.43,0.23,0.33
26.6500,-9.02,3.02,2.63,-0.51,0.01,-0.02
26.7320,-9.89,3.18,2.20,-0.51,-0.13,-0.12
26.8140,-10.00,2.24,1.18,-0.54,0.10,0.03
26.8960,-9.38,1.33,0.67,-0.77,0.34,0.09
26.9780,-13.14,6.86,8.47,-0.63,-0.58,0.33
27.0600,-7.92,0.16,2.39,0.28,0.54,-0.01
27.1420,-8.47,4.63,5.30,-0.61,-0.56,0.38
27.2240,-7.69,3.49,5.06,-0.03,-0.41,0.00
27.3060,-8.63,2.86,4.31,0.21,-0.36,0.13
27.3880,-8.51,3.73,4.55,-0.15,-0.23,0.15
27.4700,-7.85,3.37,4.43,-0.13,-0.14,0.02
27.5520,-9.18,3.73,4.98,-0.09,-0.15,0.05
27.6340,-8.55,3.73,4.28,0.00,0.13,0.01
27.7160,-8.63,3.49,4.31,0.07,0.04,-0.02
27.7980,-9.02,3.61,4.47,0.06,0.04,-0.01
27.8800,-8.75,3.53,4.08,0.05,0.06,-0.02
27.9620,-8.87,3.30,4.12,-0.02,0.06,0.04
28.0440,-8.98,3.57,4.00,-0.08,0.11,0.03
28.1260,-8.75,3.41,3.80,-0.03,0.09,-0.01
28.2080,-8.87,3.61,3.96,-0.03,0.04,-0.01
28.2900,-8.75,3.33,3.65,0.03,0.02,-0.03
28.3720,-8.79,2.86,3.80,0.06,0.01,-0.04
28.4540,-8.87,3.41,3.22,0.02,0.03,0.02
28.5360,-8.83,3.06,3.73,-0.03,0.01,-0.06
28.6180,-8.71,3.37,4.00,-0.12,-0.09,0.02
28.7000,-8.83,3.45,4.24,-0.11,-0.08,0.02
28.7820,-9.38,2.82,4.08,-0.01,-0.09,-0.03
28.8640,-9.06,3.14,3.92,-0.12,-0.00,0.01
28.9460,-9.14,2.98,3.96,-0.03,-0.04,-0.02
29.0280,-9.10,3.10,4.12,-0.01,-0.03,0.01
29.1100,-8.87,3.18,4.12,0.10,-0.01,-0.08
29.1920,-8.98,2.75,3.80,0.21,0.06,-0.12
29.2740,-9.14,3.33,4.08,0.24,0.09,-0.02
29.3560,-9.02,3.14,3.80,0.27,0.04,-0.14
29.4380,-9.02,3.30,3.80,0.22,-0.02,-0.06
29.5200,-9.02,3.22,3.33,0.26,0.01,-0.06
29.6020,-9.10,3.37,3.41,0.25,0.07,-0.04
29.6840,-8.98,3.65,3.57,0.28,0.05,-0.06
29.7660,-9.30,3.37,3.33,0.35,-0.01,-0.09
29.8480,-9.26,3.33,3.33,0.29,0.02,-0.10
29.9300,-9.10,3.41,3.26,0.26,-0.00,-0.06
30.0120,-9.22,3.30,3.22,0.23,-0.02,-0.07
30.0940,-9.22,3.30,3.18,0.18,-0.03,-0.05
30.1760,-9.38,3.22,2.98,0.12,-0.03,-0.03
30.2580,-9.34,3.22,2.98,0.11,-0.04,-0.03
30.3400,-9.34,3.14,2.86,0.05,0.01,0.00
30.4220,-9.34,3.33,2.98,-0.04,0.03,0.02
30.5040,-9.30,3.45,3.02,-0.06,0.04,0.04
30.5860,-9.18,3.33,2.98,-0.07,0.03,0.04
30.6680,-9.34,3.33,2.98,-0.07,0.03,0.04
30.7500,-9.22,3.41,2.94,-0.08,0.04,0.03
30.8320,-9.22,3.53,3.10,-0.06,0.00,0.01
30.9140,-9.30,3.49,3.06,-0.00,-0.02,-0.01
30.9960,-9.34,3.49,3.10,0.01,-0.02,-0.00
31.0780,-9.30,3.49,2.94,0.02,-0.00,-0.00
31.1600,-9.22,3.53,2.86,-0.01,0.01,0.02
31.2420,-9.41,3.53,2.90,-0.02,-0.01,0.05
31.3240,-9.65,3.73,3.30,-0.12,-0.00,0.11
31.4060,-8.16,2.67,2.04,-0.23,-0.01,0.07
31.4880,-10.28,3.53,2.63,-0.39,0.09,0.12
31.5700,-9.26,3.37,2.51,-0.14,0.04,-0.05
31.6520,-9.69,3.41,2.67,-0.07,-0.08,-0.04
31.7340,-8.47,2.90,2.86,-0.06,-0.02,0.07
31.8160,-9.85,2.75,3.57,-0.09,-0.35,0.35
31.8980,-9.69,2.67,2.90,-0.03,-0.28,-0.15
31.9800,-9.06,2.28,2.71,0.07,-0.32,0.11
32.0620,-9.61,2.16,2.51,0.10,-0.16,0.02
32.1440,-9.34,2.04,2.24,0.13,0.10,0.15
32.2260,-10.75,2.08,2.39,0.19,-0.12,0.20
32.3080,-12.32,2.35,2.28,0.53,-0.05,0.12
32.3900,-11.34,4.16,4.16,-0.69,0.31,-0.33
32.4720,-9.26,6.55,5.37,-0.94,0.16,-0.26
32.5540,-10.40,4.08,3.96,0.37,-0.22,0.11
32.6360,-7.06,2.28,1.69,-0.18,0.29,0.28
32.7180,-4.71,1.77,1.22,-0.56,0.20,0.28
32.8000,-9.10,2.94,2.55,-0.74,0.12,-0.08
32.8820,-10.40,4.98,2.39,-0.50,0.12,-0.17
32.9640,-12.47,1.57,0.12,-0.23,0.67,-0.16
33.0460,-14.59,8.79,6.71,1.37,-0.85,0.40
33.1280,-8.32,1.45,5.06,-0.45,-0.10,-0.10
33.2100,-8.24,4.35,4.39,-0.32,-0.45,0.11
33.2920,-6.16,1.65,2.82,-0.05,-0.15,0.05
33.3740,-7.77,2.51,2.75,0.16,-0.14,0.31
33.4560,-10.98,3.65,2.04,0.69,0.27,0.20
33.5380,-11.49,3.37,1.14,0.04,0.20,-0.16
33.6200,-8.20,3.92,7.41,-0.10,0.50,-0.91
33.7020,-12.98,6.39,5.49,-0.31,-0.07,-0.66
33.7840,-7.81,1.57,2.51,-0.03,0.42,0.27
33.8660,-5.73,2.08,1.06,-0.26,0.08,0.57
33.9480,-6.04,1.92,0.59,-0.65,-0.08,0.20
34.0300,-10.79,3.30,2.35,-0.70,0.13,-0.22
34.1120,-13.85,0.67,-0.39,0.48,0.19,-0.05
34.1940,-12.43,10.43,6.90,0.72,-0.32,0.47
34.2760,-8.00,2.43,5.14,-0.34,0.09,0.17
34.3580,-7.65,3.57,3.73,0.37,-0.48,-0.31
34.4400,-5.96,1.65,2.55,0.35,-0.28,-0.05
34.5220,-8.90,2.39,1.92,0.74,-0.42,0.16
34.6040,-11.10,2.98,1.84,0.92,-0.17,0.07
34.6860,-11.73,4.08,0.86,0.05,0.09,-0.25
34.7680,-8.36,4.24,7.14,-0.38,0.22,-0.96
34.8500,-12.83,6.98,5.02,-0.04,0.03,-0.61
34.9320,-7.96,1.06,2.08,0.29,0.37,0.17
35.0140,-5.65,1.92,0.67,-0.06,0.04,0.38
35.0960,-6.32,1.26,0.24,-0.48,-0.03,0.15
35.1780,-11.61,3.80,3.06,-0.88,-0.10,-0.14
35.2600,-13.73,0.82,-1.29,0.64,0.07,-0.09
35.3420,-11.02,11.10,6.51,0.08,-0.73,0.52
35.4240,-8.71,2.39,5.41,0.23,-0.11,0.20
35.5060,-7.65,4.39,3.57,0.40,-0.61,-0.35
35.5880,-6.55,1.73,2.47,0.81,-0.59,-0.31
35.6700,-7.92,2.28,1.92,0.70,-0.41,0.10
35.7520,-9.89,1.73,1.92,0.66,0.09,0.29
35.8340,-11.61,2.35,0.82,0.20,0.14,-0.15
35.9160,-10.24,6.35,6.79,-0.43,0.25,-0.89
35.9980,-10.59,6.75,5.33,-0.19,-0.06,-0.83
36.0800,-8.79,1.69,2.67,0.52,0.12,0.09
36.1620,-6.12,1.77,0.82,0.25,0.14,0.38
36.2440,-5.45,1.53,0.43,-0.39,-0.14,0.24
36.3260,-10.36,3.02,2.12,-0.55,-0.08,-0.24
36.4080,-13.02,1.57,-0.82,0.61,-0.07,-0.17
36.4900,-15.30,12.28,9.02,0.06,-1.15,0.63
36.5720,-7.61,1.65,5.10,0.49,0.45,-0.00
36.6540,-7.73,5.33,4.24,-0.04,-0.48,-0.15
36.7360,-7.02,1.53,2.79,0.51,-0.43,-0.16
36.8180,-7.65,2.35,2.20,0.31,-0.32,0.20
36.9000,-8.59,2.35,1.80,0.50,-0.10,0.29
36.9820,-12.20,1.10,0.71,0.79,-0.04,0.00
37.0640,-11.53,7.53,4.82,0.00,0.29,-0.47
37.1460,-10.00,7.26,6.63,-0.90,0.36,-1.09
37.2280,-9.53,2.28,2.94,1.06,-0.12,-0.01
37.3100,-5.81,2.20,0.31,0.06,0.21,0.37
37.3920,-5.37,1.49,0.39,-0.28,-0.28,0.23
37.4740,-10.43,2.16,0.82,-0.64,-0.13,-0.06
37.5560,-14.08,4.28,0.51,-0.29,-0.19,-0.08
37.6380,-6.83,6.47,7.73,-0.83,0.99,0.09
37.7200,-3.14,2.43,2.12,1.23,0.78,-0.18
37.8020,-10.36,5.49,6.04,-0.09,-1.12,-0.19
37.8840,-6.32,2.51,2.67,0.64,-0.51,-0.24
37.9660,-7.57,2.39,3.30,0.51,-0.61,-0.15
38.0480,-8.51,2.67,2.59,0.67,-0.16,-0.03
38.1300,-10.47,1.96,1.49,0.73,0.03,-0.05
38.2120,-12.59,4.31,2.71,0.62,-0.13,-0.20
38.2940,-11.41,4.67,5.53,-0.39,0.13,-1.01
38.3760,-9.85,5.88,5.92,-0.44,0.13,-0.25
38.4580,-6.75,2.51,2.71,0.78,-0.11,0.08
38.5400,-6.94,2.31,1.69,0.52,-0.04,0.21
38.6220,-6.47,2.31,0.71,0.07,-0.23,0.14
38.7040,-9.69,2.55,0.86,-0.08,-0.07,-0.18
38.7860,-13.30,4.04,0.82,0.11,-0.11,-0.14
38.8680,-15.81,9.26,8.32,1.03,-0.88,0.04
38.9500,-9.89,3.77,6.47,0.37,0.15,0.15
39.0320,-6.83,4.31,3.49,-0.30,-0.32,0.13
39.1140,-7.34,2.59,3.30,0.33,-0.41,-0.19
39.1960,-7.14,2.24,2.47,0.03,-0.12,0.11
39.2780,-8.28,2.86,2.43,0.29,0.03,0.07
39.3600,-9.69,2.86,2.24,0.76,0.12,0.10
39.4420,-11.77,2.86,1.06,0.44,0.07,-0.10
39.5240,-10.40,3.77,3.65,0.09,0.46,-0.23
39.6060,-10.79,7.22,6.08,-1.20,0.39,-0.88
39.6880,-10.32,1.92,2.98,0.28,0.18,0.09
39.7700,-7.69,1.96,1.53,-0.65,0.42,0.49
39.8520,-6.20,2.08,1.26,-0.77,-0.01,0.50
39.9340,-7.61,2.16,0.90,-0.93,-0.00,0.16
40.0160,-9.85,3.69,4.35,-0.67,-0.12,-0.16
40.0980,-13.02,0.00,0.31,0.06,0.61,-0.04
40.1800,-13.96,10.16,5.96,0.68,-1.07,0.72
40.2620,-8.79,2.55,5.33,-0.41,0.07,0.02
40.3440,-8.67,3.96,3.80,0.03,-0.58,-0.10
40.4260,-6.83,1.96,2.67,0.08,-0.30,-0.11
40.5080,-7.26,2.43,2.24,0.13,-0.27,0.26
40.5900,-9.85,2.75,2.20,0.53,-0.19,0.37
40.6720,-11.34,1.02,1.10,0.47,0.08,-0.07
40.7540,-11.41,6.79,4.20,0.29,0.20,-0.43
40.8360,-9.57,6.55,5.41,-0.64,0.25,-1.21
40.9180,-12.16,3.30,3.80,0.71,-0.05,-0.18
41.0000,-7.02,2.08,1.45,-0.12,0.28,0.19
41.0820,-6.24,2.08,0.71,-0.14,-0.08,0.33
41.1640,-7.02,1.61,0.20,-0.59,0.04,0.18
41.2460,-10.90,4.28,3.77,-0.90,-0.06,-0.17
41.3280,-12.79,0.78,2.00,0.42,0.50,-0.04
41.4100,-9.96,9.92,6.79,0.65,-0.42,0.72
41.4920,-8.32,3.26,5.53,-0.57,0.18,0.07
41.5740,-7.85,4.04,3.53,0.31,-0.51,-0.28
41.6560,-6.43,1.37,2.16,0.32,-0.29,-0.15
41.7380,-7.77,2.24,2.00,0.40,-0.30,0.33
41.8200,-8.87,2.90,2.31,0.57,-0.12,0.35
41.9020,-11.02,1.29,0.75,0.75,0.00,-0.07
41.9840,-12.55,5.26,4.31,-0.00,0.47,-0.58
42.0660,-12.24,8.08,6.59,-0.84,0.22,-1.07
42.1480,-9.57,2.71,3.22,0.28,0.28,-0.03
42.2300,-6.51,2.00,1.26,-0.22,0.15,0.45
42.3120,-6.08,1.80,0.86,-0.43,-0.17,0.35
42.3940,-8.63,2.04,0.90,-0.50,-0.21,0.03
42.4760,-10.79,3.73,1.96,-0.56,-0.14,-0.04
42.5580,-12.43,-0.71,-1.80,-0.07,0.62,-0.00
42.6400,-14.87,12.04,12.20,0.66,-1.61,0.66
42.7220,-7.18,-0.24,3.33,-0.14,0.82,-0.33
42.8040,-9.89,6.04,5.77,-0.04,-0.48,0.03
42.8860,-6.67,2.24,2.39,0.28,-0.12,-0.24
42.9680,-7.30,2.00,2.00,0.44,-0.33,0.19
43.0500,-8.00,2.67,1.10,0.57,-0.24,0.27
43.1320,-11.10,2.04,1.53,1.19,-0.18,0.11
43.2140,-12.43,6.20,3.69,0.15,0.07,-0.50
43.2960,-12.28,8.28,7.92,-0.44,-0.13,-1.12
43.3780,-10.79,3.41,3.61,0.41,0.14,-0.13
43.4600,-5.92,1.65,1.61,0.07,0.24,0.28
43.5420,-6.35,2.35,0.78,-0.20,-0.14,0.27
43.6240,-8.47,2.16,0.63,-0.35,-0.08,-0.02
43.7060,-9.96,2.75,1.92,-0.48,-0.08,-0.11
43.7880,-13.10,2.08,1.14,-0.05,0.46,0.07
43.8700,-14.83,6.51,2.04,0.80,0.23,0.21
43.9520,-9.14,4.08,6.20,-0.28,-0.18,0.34
44.0340,-7.88,4.00,4.20,0.02,-0.46,-0.16
44.1160,-7.37,1.45,2.63,0.29,-0.34,0.01
44.1980,-7.65,2.43,2.12,0.07,-0.27,0.24
44.2800,-9.14,2.94,2.16,0.47,-0.15,0.32
44.3620,-11.34,1.69,1.22,0.87,0.01,0.13
44.4440,-12.36,5.53,3.80,0.58,-0.05,-0.45
44.5260,-8.08,6.55,7.81,-1.00,0.27,-1.27
44.6080,-12.71,4.71,4.28,0.48,-0.20,-0.51
44.6900,-6.94,1.96,1.45,-0.15,0.40,0.32
44.7720,-6.08,2.00,0.86,-0.31,0.09,0.53
44.8540,-7.26,2.24,1.18,-0.59,-0.02,0.24
44.9360,-10.08,3.10,2.20,-0.75,-0.07,0.03
45.0180,-13.30,1.22,-0.75,0.22,-0.13,0.02
45.1000,-12.98,6.51,8.00,-0.29,-0.52,0.66
45.1820,-6.90,2.63,4.59,0.34,0.71,-0.01
45.2640,-8.16,4.94,4.86,-0.61,-0.32,0.26
45.3460,-7.37,3.41,3.53,-0.06,-0.23,-0.09
45.4280,-7.61,2.31,2.82,0.03,-0.23,0.03
45.5100,-8.08,2.55,2.24,0.18,-0.06,0.23
45.5920,-9.22,1.96,1.37,0.67,0.19,0.07
45.6740,-10.90,2.90,0.71,0.49,0.00,-0.15
45.7560,-9.92,2.35,3.30,-0.33,0.52,-0.70
45.8380,-13.14,9.22,7.30,-0.73,0.32,-0.84
45.9200,-9.38,2.79,3.18,0.19,0.14,0.05
46.0020,-7.10,1.33,1.53,-0.22,0.02,0.28
46.0840,-7.57,2.47,1.18,-0.42,-0.23,0.38
46.1660,-8.55,1.73,0.63,-0.50,-0.11,0.10
46.2480,-10.04,3.10,1.65,-0.67,0.07,-0.03
46.3300,-12.40,3.18,2.63,0.05,0.13,-0.01
46.4120,-7.02,3.65,1.18,0.98,1.31,-0.00
46.4940,-8.36,5.14,6.16,-0.66,-0.33,0.53
46.5760,-7.81,3.96,3.92,-0.11,-0.44,-0.14
46.6580,-7.22,2.00,2.90,0.15,-0.38,0.10
46.7400,-8.55,3.18,2.90,0.10,-0.38,0.20
46.8220,-9.22,3.02,1.53,0.57,0.29,0.07
46.9040,-10.40,1.22,0.86,0.73,-0.05,-0.03
46.9860,-11.22,4.39,2.98,0.63,0.07,-0.44
47.0680,-10.40,7.53,8.28,-1.36,0.30,-1.15
47.1500,-11.02,3.30,3.92,0.71,-0.06,-0.46
47.2320,-7.34,2.35,1.80,0.01,0.21,0.26
47.3140,-6.90,2.28,1.14,-0.18,-0.02,0.48
47.3960,-7.73,2.59,0.90,-0.50,-0.03,0.18
47.4780,-10.08,1.45,0.71,-0.59,0.08,0.00
47.5600,-12.71,3.80,0.08,-0.18,-0.03,0.04
47.6420,-12.71,5.96,7.77,-0.61,-0.15,0.19
47.7240,-7.45,2.71,4.59,1.08,0.82,0.11
47.8060,-9.73,6.12,6.08,-0.89,-0.50,0.24
47.8880,-7.02,2.47,2.67,0.23,-0.06,-0.26
47.9700,-7.73,2.20,2.24,0.26,-0.38,-0.03
48.0520,-7.26,1.96,1.37,0.39,-0.11,0.24
48.1340,-10.20,2.98,1.45,0.92,-0.27,0.15
48.2160,-11.69,3.88,1.33,0.28,0.14,-0.27
48.2980,-9.41,5.81,7.81,-0.94,0.03,-1.11
48.3800,-10.47,5.57,4.28,0.51,0.10,-0.67
48.4620,-8.08,2.59,2.28,0.07,0.38,0.09
48.5440,-7.10,2.20,0.98,-0.09,0.06,0.38
48.6260,-6.86,1.41,0.39,-0.33,-0.14,0.18
48.7080,-9.53,1.92,0.27,-0.72,0.04,-0.09
48.7900,-12.28,2.00,-1.22,-0.34,0.01,0.15
48.8720,-14.55,7.10,8.04,-0.54,-0.30,0.17
48.9540,-6.55,2.51,3.92,0.51,0.71,-0.15
49.0360,-8.24,6.12,4.67,-0.28,-0.33,0.20
49.1180,-7.30,2.55,3.10,0.48,-0.47,-0.22
49.2000,-7.65,2.63,2.28,0.55,-0.39,0.05
49.2820,-8.24,1.84,1.26,0.62,-0.41,0.13
49.3640,-10.04,2.79,1.37,0.89,-0.37,0.05
49.4460,-10.63,4.12,0.94,0.43,0.06,-0.24
49.5280,-9.96,6.51,7.85,-0.46,0.07,-1.03
49.6100,-11.73,5.10,4.59,0.35,0.01,-0.60
49.6920,-8.63,2.90,2.47,-0.15,0.40,0.20
49.7740,-6.79,2.16,1.26,-0.27,0.11,0.44
49.8560,-6.79,1.84,0.71,-0.36,-0.23,0.21
49.9380,-9.61,2.28,0.78,-0.60,-0.15,-0.01
50.0200,-12.24,1.88,-0.39,-0.12,0.10,0.05
50.1020,-15.18,7.06,7.37,0.24,-0.60,0.49
50.1840,-7.53,2.12,4.59,0.13,0.50,0.01
50.2660,-8.83,4.86,4.31,-0.45,-0.13,0.11
50.3480,-7.53,2.94,3.26,0.21,-0.44,-0.18
50.4300,-7.30,1.92,2.35,0.33,-0.32,0.11
50.5120,-8.12,2.20,1.45,0.49,-0.24,0.27
50.5940,-9.02,2.20,1.77,0.84,-0.20,0.25
50.6760,-10.75,3.22,0.24,0.27,0.09,-0.25
50.7580,-10.83,7.77,9.10,-1.07,0.03,-0.91
50.8400,-9.77,7.02,4.75,0.71,-0.08,-0.65
50.9220,-8.79,2.51,2.51,0.44,0.13,0.15
51.0040,-7.34,2.47,1.53,0.13,-0.02,0.23
51.0860,-6.90,2.04,0.51,-0.06,-0.15,0.07
51.1680,-9.53,1.41,-0.16,-0.27,-0.10,-0.19
51.2500,-12.08,2.55,0.24,-0.20,0.08,-0.03
51.3320,-13.10,5.53,5.10,-0.45,0.18,-0.13
51.4140,-6.47,2.28,2.71,0.74,0.87,-0.19
51.4960,-10.00,6.94,5.69,-0.20,-0.47,0.16
51.5780,-7.77,2.75,3.14,0.44,-0.35,-0.17
51.6600,-7.53,2.59,2.20,0.44,-0.34,0.04
51.7420,-7.61,2.04,1.29,0.60,-0.21,0.11
51.8240,-9.96,2.63,2.00,0.82,-0.33,0.27
51.9060,-10.40,3.22,0.63,0.34,0.00,-0.13
51.9880,-11.89,3.88,3.73,0.87,0.28,-0.54
52.0700,-11.65,8.12,5.92,-0.38,0.33,-0.97
52.1520,-9.92,2.39,2.35,0.77,0.21,-0.25
52.2340,-7.88,2.55,1.26,-0.10,0.17,0.30
52.3160,-6.86,2.82,1.61,-0.27,-0.05,0.21
52.3980,-8.00,2.63,1.49,-0.27,-0.24,-0.08
52.4800,-9.45,2.08,0.55,-0.19,-0.23,-0.19
52.5620,-11.18,1.65,-0.20,-0.34,0.02,-0.04
52.6440,-11.45,-0.04,-1.22,-0.86,0.53,0.08
52.7260,-16.20,8.39,9.53,0.27,-0.64,0.85
52.8080,-4.86,2.63,4.28,-0.49,0.62,0.40
52.8900,-8.36,5.18,4.98,-0.39,-0.37,-0.09
52.9720,-8.71,2.67,3.80,0.46,-0.23,-0.18
53.0540,-9.14,3.26,2.86,0.27,-0.19,0.00
53.1360,-8.71,3.30,2.71,0.55,-0.07,-0.02
53.2180,-9.49,2.75,2.94,0.84,-0.11,-0.02
53.3000,-8.51,2.86,2.39,0.76,-0.17,-0.01
53.3820,-9.61,2.08,1.29,1.26,-0.30,-0.04
53.4640,-9.81,4.75,2.63,0.41,0.05,-0.02
53.5460,-10.28,5.73,4.86,0.03,-0.24,-0.59
53.6280,-8.47,3.73,2.90,0.88,-0.16,-0.12
53.7100,-8.12,4.75,2.71,0.33,-0.30,0.02
53.7920,-8.67,4.90,3.18,0.23,-0.38,0.14
53.8740,-9.41,3.96,2.39,0.33,-0.18,0.11
53.9560,-8.12,4.28,2.67,0.04,-0.06,0.14
54.0380,-8.51,5.06,3.22,0.16,-0.14,0.16
54.1200,-8.24,4.86,2.79,0.26,-0.15,0.06
54.2020,-8.87,4.94,2.59,0.30,-0.04,-0.03
54.2840,-9.06,4.63,2.63,0.32,-0.12,-0.00
54.3660,-8.59,4.90,2.43,0.31,-0.15,-0.00
54.4480,-8.75,4.43,2.35,0.37,-0.11,-0.02
54.5300,-9.02,4.12,2.24,0.20,-0.05,-0.03
54.6120,-8.79,4.67,2.24,0.00,-0.01,-0.04
54.6940,-9.45,4.20,2.16,0.04,-0.02,-0.06
54.7760,-8.79,4.31,2.20,-0.02,0.03,-0.03
54.8580,-9.22,4.35,2.51,-0.11,-0.00,-0.01
54.9400,-8.90,4.43,2.47,-0.14,-0.03,0.01
55.0220,-8.90,4.31,2.51,-0.16,-0.01,0.00
55.1040,-9.06,4.31,2.63,-0.18,0.02,-0.03
55.1860,-9.10,4.39,2.82,-0.15,0.01,-0.04
55.2680,-8.94,4.47,2.82,-0.11,-0.00,-0.06
55.3500,-8.98,4.43,2.90,-0.06,-0.01,-0.07
55.4320,-8.90,4.31,2.79,-0.01,-0.02,-0.08
55.5140,-8.67,4.35,2.86,-0.02,-0.01,-0.06
55.5960,-8.94,4.24,2.94,0.02,-0.04,-0.06
55.6780,-9.10,4.28,2.86,0.03,-0.04,-0.05
55.7600,-9.14,4.00,2.86,0.01,-0.03,-0.02
55.8420,-8.87,3.96,2.75,-0.04,0.01,-0.00
55.9240,-9.14,3.92,2.94,-0.07,0.02,-0.02
56.0060,-9.06,3.96,2.94,-0.05,0.00,-0.00
56.0880,-9.06,4.00,2.75,-0.04,-0.01,0.02
56.1700,-8.98,3.92,2.86,-0.03,-0.00,0.02
56.2520,-9.22,3.84,3.02,-0.06,0.01,0.03
56.3340,-8.87,3.96,2.90,-0.02,0.02,0.05
56.4160,-9.14,3.49,2.79,0.04,-0.01,0.05
56.4980,-9.18,3.65,2.67,-0.00,0.03,0.03
56.5800,-9.10,3.88,2.86,-0.01,0.01,0.06
56.6620,-8.79,4.16,3.10,-0.00,-0.07,0.10
56.7440,-8.67,4.39,3.41,-0.05,-0.12,0.09
56.8260,-9.22,4.16,3.22,0.01,-0.16,0.12
56.9080,-8.43,4.43,3.10,-0.10,-0.01,0.09
56.9900,-7.92,5.14,3.30,-0.14,0.10,-0.04
57.0720,-10.20,4.55,3.10,0.00,-0.02,-0.04
57.1540,-8.90,4.43,2.79,-0.20,-0.02,0.18
57.2360,-8.43,4.51,2.67,-0.07,-0.05,0.22
57.3180,-9.22,3.80,2.55,-0.07,-0.02,0.09
57.4000,-9.41,3.92,2.51,-0.11,-0.02,-0.00
57.4820,-9.18,3.61,2.08,-0.24,0.11,0.01
57.5640,-9.10,3.45,2.12,-0.36,0.09,-0.04
57.6460,-9.22,3.14,1.88,-0.33,0.12,-0.18
57.7280,-12.12,6.28,5.37,-0.20,-0.08,-0.01
57.8100,-7.45,3.14,2.20,-0.12,0.27,-0.03
57.8920,-7.77,4.28,3.53,-0.05,-0.15,-0.09
57.9740,-10.08,3.45,4.16,0.17,-0.20,-0.07
58.0560,-8.59,3.96,3.61,-0.10,-0.02,-0.23
58.1380,-8.51,2.86,2.98,0.17,-0.08,-0.17
58.2200,-8.98,2.59,2.63,0.18,-0.15,-0.07
58.3020,-9.26,2.31,2.63,0.33,-0.12,0.16
58.3840,-10.16,3.02,2.59,0.27,-0.06,0.14
58.4660,-10.90,3.53,1.88,0.49,-0.10,0.09
58.5480,-10.40,1.69,1.69,0.77,0.25,-0.22
58.6300,-8.16,6.16,7.49,-1.29,0.19,-0.67
58.7120,-9.41,6.32,3.88,0.03,0.01,-0.64
58.7940,-9.02,2.24,2.47,0.22,0.20,0.10
58.8760,-7.14,2.63,1.88,-0.21,0.22,0.50
58.9580,-6.67,2.47,1.49,-0.38,0.02,0.16
59.0400,-9.06,1.61,0.82,-0.46,-0.08,-0.06
59.1220,-11.57,3.92,2.90,-0.42,-0.08,-0.14
59.2040,-10.20,-1.14,0.59,-0.14,0.99,-0.20
59.2860,-9.89,9.61,6.32,0.98,0.35,0.52
59.3680,-8.79,3.57,5.65,-0.82,0.11,0.06
59.4500,-7.96,4.20,3.61,0.37,-0.49,-0.28
59.5320,-6.83,2.39,2.86,0.38,-0.43,-0.19
59.6140,-7.73,2.24,2.16,0.55,-0.48,0.15
59.6960,-9.53,2.24,3.41,0.67,0.10,0.16
59.7780,-11.30,2.24,-0.08,0.41,-0.03,-0.05
59.8600,-11.89,4.90,3.41,1.01,-0.07,-0.50
59.9420,-10.12,6.79,6.43,-1.22,0.26,-1.27
60.0240,-12.75,3.69,3.88,0.50,-0.11,-0.23
60.1060,-6.67,1.84,1.45,-0.41,0.55,0.46
60.1880,-5.92,1.92,0.94,-0.38,-0.03,0.56
60.2700,-7.85,2.71,0.86,-0.63,-0.03,0.11
60.3520,-10.59,2.55,2.35,-0.68,-0.04,-0.00
60.4340,-12.75,0.63,-1.41,0.20,0.29,0.00
60.5160,-15.14,12.79,8.94,0.56,-1.27,0.67
60.5980,-8.12,1.73,4.86,0.16,0.40,0.03
60.6800,-8.08,4.79,3.92,-0.18,-0.63,-0.11
60.7620,-7.10,1.65,2.39,0.33,-0.48,-0.18
60.8440,-7.96,2.47,2.55,0.16,-0.44,0.21
60.9260,-9.18,2.47,1.45,0.51,-0.05,0.11
61.0080,-10.43,2.28,2.55,0.63,-0.03,0.05
61.0900,-11.22,3.80,1.57,0.62,0.14,-0.44
61.1720,-7.41,5.37,7.61,-1.10,0.20,-0.88
61.2540,-11.77,6.55,4.75,0.23,-0.23,-0.59
61.3360,-7.92,1.96,2.16,0.02,0.30,0.17
61.4180,-6.47,2.28,1.26,-0.07,0.09,0.41
61.5000,-6.39,1.73,0.82,-0.47,-0.05,0.18
61.5820,-10.32,2.59,1.53,-0.69,-0.14,-0.07
61.6640,-12.67,1.77,-0.78,0.14,-0.05,-0.03
61.7460,-14.79,8.94,9.73,0.18,-0.89,0.49
61.8280,-8.67,3.02,5.61,0.18,0.71,0.10
61.9100,-7.65,5.14,4.31,-0.37,-0.19,0.04
61.9920,-7.45,2.63,3.10,0.38,-0.34,-0.31
62.0740,-7.57,1.84,2.20,0.31,-0.35,0.03
62.1560,-8.20,2.47,1.88,0.38,-0.32,0.22
62.2380,-10.20,2.24,2.28,0.82,-0.17,0.21
62.3200,-10.87,3.18,1.14,0.13,0.18,-0.28
62.4020,-9.85,4.55,6.83,-0.06,0.28,-0.87
62.4840,-10.67,6.55,4.98,-0.21,0.16,-0.91
62.5660,-8.98,1.84,2.43,0.37,0.15,0.13
62.6480,-6.71,2.35,1.14,-0.05,0.36,0.42
62.7300,-6.75,1.80,0.90,-0.24,-0.09,0.24
62.8120,-9.57,1.84,0.67,-0.62,-0.17,0.13
62.8940,-11.73,4.71,2.51,-0.55,-0.19,-0.12
62.9760,-12.12,0.59,2.12,-0.22,0.69,0.01
63.0580,-9.10,4.71,2.24,0.96,0.49,0.15
63.1400,-9.53,3.53,6.28,-0.40,-0.23,0.26
63.2220,-8.43,4.47,4.59,-0.12,-0.54,-0.24
63.3040,-6.79,2.00,2.79,0.25,-0.46,-0.09
63.3860,-7.81,2.24,2.67,0.19,-0.44,0.26
63.4680,-8.55,2.51,2.04,0.47,0.05,0.23
63.5500,-10.83,2.08,2.39,0.79,-0.01,0.21
63.6320,-11.81,3.14,1.33,0.56,-0.01,-0.28
63.7140,-7.96,4.94,5.57,-0.55,0.56,-0.55
63.7960,-10.00,7.18,4.79,-0.30,0.06,-0.73
63.8780,-9.69,1.22,2.28,0.07,0.49,0.17
63.9600,-7.88,2.71,2.08,-0.48,0.39,0.43
64.0420,-5.45,1.92,0.90,-0.72,0.16,0.32
64.1240,-9.10,1.26,0.90,-0.84,-0.15,0.20
64.2060,-12.12,4.20,2.63,-0.65,0.13,-0.07
64.2880,-10.32,-3.77,-3.10,-0.64,1.16,-0.06
64.3700,-9.18,13.93,8.90,0.15,-1.21,0.89
64.4520,-7.92,2.00,3.69,-0.72,0.24,-0.17
64.5340,-8.39,4.16,3.77,0.36,-0.56,-0.19
64.6160,-6.32,2.35,2.55,0.36,-0.30,-0.29
64.6980,-8.43,1.88,2.28,0.70,-0.36,0.14
64.7800,-9.92,2.90,1.73,0.54,-0.11,0.31
64.8620,-11.38,1.10,0.43,0.34,0.07,0.03
64.9440,-11.73,6.59,3.57,0.31,0.13,-0.42
65.0260,-10.71,5.88,6.63,-1.15,0.24,-1.23
65.1080,-11.14,3.10,3.77,0.56,0.12,-0.16
65.1900,-7.53,2.55,1.73,-0.20,0.26,0.54
65.2720,-6.55,2.28,1.33,-0.28,-0.10,0.53
65.3540,-8.39,2.35,0.78,-0.52,-0.20,0.17
65.4360,-10.90,3.37,4.12,-0.68,-0.04,-0.12
65.5180,-12.08,-1.69,-0.94,0.22,0.68,-0.17
65.6000,-13.14,13.57,9.73,0.05,-0.90,0.82
65.6820,-7.41,1.10,4.16,-0.11,0.33,-0.11
65.7640,-9.06,4.94,4.35,-0.15,-0.48,-0.12
65.8460,-7.14,1.69,2.43,-0.01,-0.18,-0.16
65.9280,-8.00,2.47,2.16,0.08,-0.26,0.26
66.0100,-8.28,2.71,1.92,0.28,-0.04,0.35
66.0920,-11.22,2.51,1.53,0.73,-0.03,0.19
66.1740,-11.45,5.49,3.14,0.60,-0.07,-0.31
66.2560,-8.90,6.86,7.49,-0.90,0.01,-1.07
66.3380,-12.28,4.67,4.00,0.53,-0.10,-0.56
66.4200,-7.34,1.77,1.61,-0.20,0.38,0.25
66.5020,-7.22,2.94,1.61,-0.47,0.19,0.42
66.5840,-6.94,2.08,1.26,-0.62,0.05,0.27
66.6660,-9.38,2.20,1.29,-0.79,-0.01,0.02
66.7480,-12.91,2.86,0.27,-0.26,-0.14,0.09
66.8300,-13.14,4.63,6.32,-0.33,-0.25,0.43
66.9120,-5.84,2.98,4.24,0.40,1.26,0.13
66.9940,-7.37,5.26,4.79,-0.47,-0.11,0.20
67.0760,-7.85,3.06,3.61,0.35,-0.35,-0.39
67.1580,-7.61,1.77,2.75,0.41,-0.27,-0.06
67.2400,-8.71,2.75,2.67,0.37,-0.22,0.20
67.3220,-8.75,2.67,2.67,0.48,0.02,0.22
67.4040,-10.36,1.88,1.49,0.58,0.13,0.03
67.4860,-10.94,3.84,1.65,0.46,0.06,-0.02
67.5680,-10.04,3.80,4.43,-0.49,0.42,-0.50
67.6500,-10.16,7.57,4.59,-0.69,0.49,-0.93
67.7320,-9.96,2.31,2.24,0.45,-0.08,-0.02
67.8140,-8.16,2.24,1.57,-0.50,0.36,0.37
67.8960,-6.98,2.98,1.92,-0.64,0.25,0.35
67.9780,-8.39,2.59,2.00,-0.61,-0.08,0.05
68.0600,-9.53,3.26,2.08,-0.52,-0.17,-0.05
68.1420,-10.40,1.84,1.10,-0.40,0.03,0.04
68.2240,-10.08,0.86,0.00,-0.83,0.59,0.02
68.3060,-14.04,6.86,6.63,-0.14,-0.61,0.24
68.3880,-6.12,2.00,4.59,0.44,0.50,0.45
68.4700,-7.85,4.35,5.02,-0.68,-0.41,0.16
68.5520,-8.39,3.45,5.06,-0.19,-0.25,0.19
68.6340,-8.55,3.69,4.79,-0.10,-0.39,0.08
68.7160,-8.75,3.73,4.16,0.11,-0.33,0.09
68.7980,-9.30,3.49,4.00,0.42,-0.12,-0.16
68.8800,-9.06,3.37,4.12,0.38,0.16,-0.11
68.9620,-8.87,4.08,4.04,0.55,0.07,-0.11
69.0440,-8.16,3.69,3.33,0.27,0.17,0.01
69.1260,-8.98,3.77,3.10,0.27,-0.02,-0.03
69.2080,-9.10,3.33,2.86,0.18,-0.06,-0.07
69.2900,-9.38,3.37,2.82,0.01,-0.06,-0.01
69.3720,-9.14,3.41,2.86,-0.13,-0.04,0.04
69.4540,-9.14,3.73,3.06,-0.15,-0.06,0.01
69.5360,-9.06,3.65,3.10,-0.12,-0.04,-0.00
69.6180,-9.14,3.65,3.26,-0.14,0.00,-0.01
69.7000,-9.06,3.73,3.37,-0.12,-0.00,0.01
69.7820,-9.14,3.37,3.22,-0.09,-0.01,-0.01
69.8640,-9.30,3.41,3.41,-0.10,-0.04,-0.01
69.9460,-9.30,3.41,3.45,-0.09,-0.05,0.00
70.0280,-9.18,3.30,3.57,-0.04,-0.05,-0.02
70.1100,-9.02,2.98,3.57,-0.01,-0.12,-0.03
70.1920,-9.57,3.10,3.57,-0.01,-0.06,0.05
70.2740,-9.18,3.02,3.18,0.13,-0.05,-0.07
70.3560,-9.38,2.43,3.22,0.23,-0.12,-0.11
70.4380,-9.34,2.63,3.02,0.31,-0.13,-0.10
70.5200,-9.69,2.39,2.75,0.43,-0.04,-0.09
70.6020,-9.49,1.96,2.16,0.48,0.02,-0.09
70.6840,-9.89,1.80,1.96,0.40,-0.08,0.03
70.7660,-10.98,2.08,1.80,0.47,-0.22,0.22
70.8480,-10.87,2.35,1.33,0.33,0.07,0.40
70.9300,-11.06,3.26,3.73,-0.55,0.34,-0.07
71.0120,-8.36,6.08,5.26,-0.67,0.38,-0.52
71.0940,-10.79,3.80,3.84,0.00,0.09,-0.09
71.1760,-7.53,3.02,2.00,-0.43,0.39,0.40
71.2580,-7.49,2.67,2.00,-0.33,0.06,0.31
71.3400,-7.41,2.94,1.26,-0.46,0.04,0.14
71.4220,-10.04,3.33,2.24,-0.57,-0.05,-0.04
71.5040,-13.06,1.57,-0.39,0.08,0.12,-0.13
71.5860,-11.96,8.12,9.69,-0.46,0.33,0.24
71.6680,-5.84,2.79,2.79,0.42,0.76,-0.03
71.7500,-8.12,5.14,4.35,-0.67,-0.40,0.04
71.8320,-6.51,2.28,2.98,0.25,-0.37,-0.23
71.9140,-6.35,2.51,2.71,0.31,-0.39,0.09
71.9960,-9.41,2.08,2.20,0.81,-0.23,0.26
72.0780,-11.57,2.31,0.98,0.66,-0.02,-0.01
72.1600,-11.45,4.59,2.04,0.19,0.13,-0.36
72.2420,-7.26,4.79,7.41,-1.16,0.32,-1.06
72.3240,-13.18,5.10,4.79,0.21,-0.10,-0.36
72.4060,-7.41,1.80,1.65,-0.36,0.47,0.29
72.4880,-6.20,1.73,1.02,-0.46,0.32,0.66
72.5700,-6.55,2.39,0.67,-0.87,0.12,0.31
72.6520,-11.06,3.88,2.28,-0.84,-0.11,-0.07
72.7340,-12.94,0.55,-1.57,0.37,0.49,0.07
72.8160,-14.83,10.67,8.87,-0.03,-0.99,0.53
72.8980,-7.96,2.39,4.94,0.09,0.30,0.08
72.9800,-8.79,4.35,4.12,-0.28,-0.63,-0.26
73.0620,-6.90,1.29,2.67,0.30,-0.33,-0.22
73.1440,-7.53,2.43,2.63,0.34,-0.48,0.16
73.2260,-9.57,3.02,2.20,0.74,0.01,0.18
73.3080,-11.45,1.41,0.47,0.78,-0.08,-0.00
73.3900,-12.59,4.75,2.71,0.53,-0.21,-0.34
73.4720,-7.65,5.77,6.94,-1.04,0.07,-1.15
73.5540,-13.14,4.63,4.20,0.37,-0.08,-0.48
73.6360,-6.86,1.65,1.57,-0.13,0.47,0.36
73.7180,-6.63,1.96,0.82,-0.31,0.13,0.55
73.8000,-7.18,2.08,0.78,-0.62,-0.03,0.26
73.8820,-10.71,2.86,1.69,-0.68,-0.11,-0.01
73.9640,-12.91,1.57,-0.82,0.38,0.03,0.05
74.0460,-14.24,9.89,8.47,0.27,-0.49,0.58
74.1280,-7.77,2.47,4.28,0.07,0.22,0.02
74.2100,-7.69,4.47,3.84,-0.43,-0.49,0.08
74.2920,-7.18,2.24,2.75,0.06,-0.41,-0.15
74.3740,-7.37,2.08,2.39,-0.13,-0.26,0.25
74.4560,-8.98,2.51,2.12,0.20,-0.20,0.29
74.5380,-10.08,2.63,1.96,0.51,0.12,0.06
74.6200,-12.16,4.51,1.88,0.50,0.07,-0.44
74.7020,-8.16,5.73,7.34,-1.14,0.34,-0.98
74.7840,-11.10,5.96,4.71,0.34,-0.16,-0.44
74.8660,-7.53,1.92,2.08,0.14,0.40,0.29
74.9480,-6.35,1.77,1.10,-0.04,0.15,0.48
75.0300,-7.18,2.04,0.78,-0.61,-0.07,0.26
75.1120,-10.98,3.92,3.22,-0.75,0.05,-0.13
75.1940,-12.59,2.20,0.59,0.54,0.28,-0.11
75.2760,-12.67,8.94,5.26,0.87,0.40,0.57
75.3580,-7.49,2.82,5.37,-0.25,0.05,0.01
75.4400,-7.81,4.71,4.16,0.12,-0.57,-0.24
75.5220,-7.45,1.41,2.79,0.49,-0.35,-0.22
75.6040,-8.39,2.59,2.86,0.21,-0.32,0.26
75.6860,-9.85,3.02,2.47,0.48,0.07,0.31
75.7680,-10.75,1.45,1.73,0.44,0.17,0.03
75.8500,-12.47,5.10,2.71,0.79,-0.05,-0.25
75.9320,-8.36,4.43,6.12,-1.38,0.33,-0.84
76.0140,-10.90,6.35,4.00,0.01,0.22,-0.43
76.0960,-7.65,2.20,2.00,-0.14,0.50,0.28
76.1780,-6.98,2.90,1.22,-0.28,0.18,0.57
76.2600,-6.63,2.43,0.90,-0.50,-0.04,0.29
76.3420,-10.98,2.79,1.53,-0.66,-0.17,-0.02
76.4240,-12.00,1.69,-0.51,-0.17,0.10,-0.14
76.5060,-14.55,9.30,7.96,0.53,-0.79,0.27
76.5880,-9.10,4.71,6.28,0.21,0.26,0.13
76.6700,-7.53,4.71,3.53,0.06,-0.43,-0.07
76.7520,-7.18,2.98,3.45,0.66,-0.64,-0.45
76.8340,-7.81,1.92,3.10,0.45,-0.39,0.02
76.9160,-8.87,2.82,3.18,0.16,-0.20,0.08
76.9980,-9.41,3.14,2.35,0.33,0.19,0.17
77.0800,-10.94,2.90,1.57,0.55,-0.15,-0.03
77.1620,-10.90,2.86,0.51,0.55,0.08,-0.14
77.2440,-9.22,5.69,7.26,-1.08,0.33,-0.16
77.3260,-8.63,4.98,3.96,-0.31,0.34,-0.24
77.4080,-9.38,1.73,3.14,-0.28,0.68,0.27
77.4900,-8.08,2.35,2.35,-1.31,0.93,0.68
77.5720,-8.43,3.49,2.90,-1.65,0.80,0.70
77.6540,-8.39,3.26,2.98,-1.30,0.66,0.41
77.7360,-9.18,2.43,1.53,-1.21,0.51,0.28
77.8180,-11.18,0.75,1.29,-1.33,0.57,0.18
77.9000,-10.36,1.84,1.53,-1.53,0.50,0.18
77.9820,-12.08,6.24,4.04,0.24,0.13,0.21
78.0640,-8.08,1.92,4.82,-0.64,0.00,0.05
78.1460,-7.88,4.47,3.77,-1.04,-0.21,0.29
78.2280,-8.67,2.82,3.65,-0.59,-0.17,0.06
78.3100,-8.32,2.63,3.41,-0.55,-0.09,0.21
78.3920,-9.02,2.71,3.18,-0.36,-0.02,0.19
78.4740,-8.55,3.22,2.55,0.01,0.20,0.15
78.5560,-11.26,2.51,2.55,0.58,-0.03,0.03
78.6380,-12.16,2.59,1.22,0.64,0.22,-0.02
78.7200,-11.61,2.20,4.43,-0.93,0.24,-0.34
78.8020,-7.41,5.77,4.24,-1.32,0.78,-0.15
78.8840,-9.38,3.69,3.69,-0.30,0.17,0.17
78.9660,-8.12,2.86,2.51,-0.93,0.31,0.47
79.0480,-7.92,4.00,2.39,-0.69,0.11,0.49
79.1300,-7.45,3.37,2.00,-0.48,0.07,0.15
79.2120,-9.73,2.59,1.69,-0.43,-0.19,0.04
79.2940,-10.87,1.26,0.24,-0.39,0.19,-0.19
79.3760,-13.57,5.65,5.18,-0.16,-0.10,0.19
79.4580,-6.90,5.88,2.16,-0.16,0.53,0.15
79.5400,-7.18,2.94,3.92,0.21,-0.14,-0.02
79.6220,-7.18,4.55,3.53,0.06,-0.25,-0.22
79.7040,-7.69,2.63,3.14,0.51,-0.37,-0.25
79.7860,-8.87,3.45,2.86,0.49,-0.35,-0.25
79.8680,-8.98,2.86,2.51,0.78,-0.30,-0.18
79.9500,-8.98,2.94,2.31,1.05,-0.17,-0.09
80.0320,-11.57,3.30,2.08,1.09,-0.36,-0.11
80.1140,-11.89,3.41,2.12,0.84,-0.06,-0.30
80.1960,-11.14,5.49,4.00,0.17,-0.03,-0.96
80.2780,-7.34,6.43,3.96,0.37,0.03,-0.43
80.3600,-9.30,3.73,3.10,1.47,-0.47,-0.11
80.4420,-8.32,2.79,1.49,1.09,-0.35,-0.05
80.5240,-6.98,3.45,1.29,0.77,-0.44,-0.07
80.6060,-9.38,2.35,1.02,0.72,-0.43,-0.37
80.6880,-10.24,2.75,0.78,0.20,-0.43,-0.34
80.7700,-11.10,2.98,0.94,0.25,-0.18,-0.53
80.8520,-13.10,8.55,3.96,1.46,-0.57,-0.10
80.9340,-8.04,3.80,5.02,0.68,-0.41,-0.25
81.0160,-8.12,5.49,4.12,0.50,-0.51,-0.31
81.0980,-7.85,3.45,3.77,1.43,-0.61,-0.73
81.1800,-7.61,3.10,3.26,1.24,-0.54,-0.50
81.2620,-9.41,1.96,3.10,1.41,-0.57,-0.51
81.3440,-9.06,2.47,2.28,0.96,-0.30,-0.22
81.4260,-9.85,3.22,1.37,1.23,0.01,-0.31
81.5080,-11.41,3.02,0.39,1.34,-0.26,-0.25
81.5900,-10.12,3.37,1.69,1.09,-0.03,-0.41
81.6720,-10.75,7.41,6.83,-0.39,-0.02,-0.99
81.7540,-10.28,2.51,3.26,1.54,-0.07,-0.20
81.8360,-7.30,1.92,1.65,0.78,0.07,0.10
81.9180,-6.79,2.47,1.37,0.40,-0.20,0.27
82.0000,-8.67,2.59,0.98,0.14,-0.16,-0.04
82.0820,-9.22,2.08,0.43,-0.29,-0.13,-0.06
82.1640,-12.47,2.31,-0.27,0.13,-0.10,-0.02
82.2460,-10.67,4.31,3.41,-0.44,0.47,0.19
82.3280,-7.85,4.35,2.67,1.54,0.61,0.10
82.4100,-8.47,4.90,5.45,-0.65,-0.33,0.17
82.4920,-8.00,4.28,3.69,0.29,-0.46,-0.29
82.5740,-7.49,2.67,3.18,0.40,-0.38,-0.04
82.6560,-8.08,2.79,2.79,0.50,-0.37,0.09
82.7380,-9.45,3.22,2.55,0.75,-0.10,0.28
82.8200,-10.32,1.61,1.14,0.88,0.09,-0.08
82.9020,-11.34,5.41,2.24,0.55,0.06,-0.32
82.9840,-8.55,6.08,7.18,-1.11,0.16,-0.83
83.0660,-11.89,4.98,3.92,0.37,-0.05,-0.56
83.1480,-7.53,2.39,1.69,-0.32,0.51,0.25
83.2300,-7.57,2.55,1.92,-0.59,0.28,0.38
83.3120,-7.92,2.51,1.61,-0.78,0.17,0.33
83.3940,-9.69,1.61,1.80,-0.82,-0.15,0.18
83.4760,-10.87,4.67,3.06,-0.57,0.02,0.17
83.5580,-12.47,-1.41,-1.22,-0.41,0.95,0.10
83.6400,-13.02,11.38,9.53,-0.18,-0.37,0.52
83.7220,-7.30,1.02,3.57,-0.70,0.80,0.10
83.8040,-10.63,4.59,4.55,-1.05,-0.25,0.24
83.8860,-7.34,2.82,2.35,-1.02,0.15,0.24
83.9680,-7.65,2.55,3.06,-0.70,-0.00,0.39
84.0500,-8.04,2.86,2.63,-0.31,-0.11,0.30
84.1320,-10.59,2.51,2.35,0.42,0.03,0.43
84.2140,-11.06,2.28,1.33,-0.17,0.12,-0.07
84.2960,-11.30,4.67,3.37,-0.21,0.44,-0.32
84.3780,-9.45,7.22,5.18,-1.17,0.06,-0.93
84.4600,-11.81,2.82,3.49,0.42,0.08,-0.19
84.5420,-7.81,2.63,1.92,-0.49,0.28,0.26
84.6240,-6.59,2.55,1.53,-0.53,0.22,0.40
84.7060,-8.24,3.02,1.69,-0.58,-0.13,0.06
84.7880,-10.32,2.59,2.04,-0.51,-0.20,0.02
84.8700,-10.12,3.06,0.86,-0.23,-0.10,0.10
84.9520,-10.94,1.02,0.39,-0.61,0.39,0.01
85.0340,-13.49,7.85,7.57,0.65,-0.67,0.15
85.1160,-8.43,2.51,4.71,0.23,0.39,0.01
85.1980,-7.69,4.59,3.92,-0.21,-0.10,0.05
85.2800,-8.08,3.22,3.53,0.70,-0.38,-0.54
85.3620,-7.45,2.43,2.79,0.57,-0.32,-0.20
85.4440,-8.98,2.82,2.51,0.79,-0.45,-0.16
85.5260,-8.67,2.55,2.24,1.15,-0.33,0.10
85.6080,-11.26,2.16,1.33,0.99,-0.24,-0.10
85.6900,-10.63,3.30,0.63,1.11,-0.16,-0.44
85.7720,-8.08,4.28,5.96,-0.19,0.19,-0.91
85.8540,-11.73,6.59,4.12,0.68,-0.21,-0.85
85.9360,-8.43,1.41,1.92,0.92,0.08,0.09
86.0180,-7.73,2.28,1.06,0.57,-0.07,0.30
86.1000,-7.45,2.86,0.78,0.17,-0.40,0.05
86.1820,-10.16,1.49,0.35,0.09,-0.25,-0.06
86.2640,-10.94,4.51,2.08,-0.18,-0.30,-0.20
86.3460,-10.87,0.43,0.16,0.05,0.63,-0.06
86.4280,-11.69,10.04,7.18,1.30,-0.53,0.35
86.5100,-7.73,1.77,3.77,-0.06,-0.03,-0.18
86.5920,-8.98,4.47,3.92,0.24,-0.50,-0.26
86.6740,-7.57,2.71,3.14,0.38,-0.33,-0.14
86.7560,-8.24,2.94,2.67,0.43,-0.32,0.07
86.8380,-9.18,2.75,2.39,0.76,-0.14,0.16
86.9200,-9.96,2.67,2.16,0.91,-0.07,0.11
87.0020,-11.02,4.00,1.57,0.67,-0.02,-0.32
87.0840,-9.18,2.75,4.98,0.31,0.38,-0.55
87.1660,-10.83,6.98,5.02,-0.12,0.11,-0.91
87.2480,-10.16,1.73,2.24,0.42,0.26,-0.01
87.3300,-7.77,2.35,1.73,-0.24,0.28,0.36
87.4120,-7.53,2.98,1.65,-0.51,0.05,0.34
87.4940,-8.71,2.12,1.33,-0.57,0.01,0.15
87.5760,-9.89,2.55,2.31,-0.81,-0.11,0.14
87.6580,-12.16,1.88,0.67,-0.34,0.10,0.17
87.7400,-10.04,2.43,4.28,-1.21,0.82,0.30
87.8220,-9.77,4.55,2.63,0.29,0.89,0.33
87.9040,-7.77,3.22,5.37,-1.75,0.09,0.45
87.9860,-8.36,3.37,4.39,-0.67,-0.00,-0.02
88.0680,-8.08,3.10,3.53,-0.55,-0.13,0.21
88.1500,-7.96,2.86,3.49,-0.43,-0.22,0.37
88.2320,-8.59,2.63,2.86,-0.18,0.10,0.24
88.3140,-10.00,3.14,3.30,0.23,-0.01,0.42
88.3960,-10.51,2.28,2.31,0.21,0.15,0.09
88.4780,-11.10,2.94,2.75,0.66,-0.07,-0.12
88.5600,-9.49,4.12,5.84,-0.91,0.38,-0.34
88.6420,-7.22,5.92,3.73,-0.32,0.29,-0.44
88.7240,-10.79,2.28,3.41,0.02,0.13,0.05
88.8060,-8.24,3.26,2.28,-0.58,0.42,0.17
88.8880,-8.04,3.10,2.51,-0.53,0.29,0.36
88.9700,-8.83,2.71,2.20,-0.51,0.05,0.12
89.0520,-9.69,2.63,2.12,-0.62,-0.12,0.16
89.1340,-10.24,2.55,2.35,-0.78,0.14,0.22
89.2160,-10.51,1.02,0.86,-0.74,0.32,0.11
89.2980,-12.32,4.75,5.02,-0.85,0.00,0.29
89.3800,-10.00,1.49,0.90,0.18,1.05,-0.06
89.4620,-7.88,4.39,5.10,-1.04,-0.01,0.37
89.5440,-8.39,4.51,4.24,-0.69,-0.11,0.13
89.6260,-8.43,2.75,3.45,-0.08,-0.22,-0.10
89.7080,-8.75,2.20,3.22,-0.20,-0.21,0.28
89.7900,-8.67,3.06,2.75,-0.16,-0.01,0.21
89.8720,-9.14,2.71,2.47,0.13,0.00,0.28
89.9540,-10.16,2.59,2.75,0.35,0.00,0.20
90.0360,-10.36,2.90,1.29,0.31,0.12,-0.05
90.1180,-11.06,3.77,4.47,0.12,0.16,-0.31
90.2000,-7.57,6.35,5.30,-0.27,0.22,-0.84
90.2820,-10.87,2.67,3.53,0.58,-0.05,-0.25
90.3640,-8.20,2.86,2.43,-0.10,0.24,0.17
90.4460,-7.02,3.22,2.47,-0.16,0.14,0.29
90.5280,-8.20,2.79,2.04,-0.06,-0.09,0.11
90.6100,-9.53,1.96,1.80,-0.31,-0.27,0.08
90.6920,-10.40,2.90,2.35,-0.46,-0.07,0.07
90.7740,-10.98,1.14,0.35,-0.39,0.26,0.02
90.8560,-12.24,4.55,5.45,-0.59,-0.37,0.31
90.9380,-7.26,1.26,0.47,0.74,1.33,-0.03
91.0200,-7.65,4.31,5.53,-1.04,-0.11,0.42
91.1020,-8.00,5.14,4.39,-0.46,-0.09,0.02
91.1840,-8.63,2.35,3.33,0.15,-0.18,-0.16
91.2660,-8.47,2.79,3.30,0.00,-0.23,0.11
91.3480,-9.14,2.39,2.67,0.22,-0.07,0.03
91.4300,-9.10,3.06,3.02,0.37,0.03,0.25
91.5120,-10.47,2.55,2.51,0.53,-0.01,0.06
91.5940,-10.71,2.67,1.65,0.69,-0.00,-0.07
91.6760,-10.71,3.18,4.04,-0.20,0.29,-0.23
91.7580,-8.12,6.43,5.14,-0.67,0.22,-0.68
91.8400,-8.04,2.90,3.02,0.92,-0.15,-0.27
91.9220,-9.69,3.49,2.47,0.13,0.03,0.07
92.0040,-7.37,3.41,2.28,-0.13,0.19,0.21
92.0860,-8.47,3.49,2.20,-0.13,-0.01,0.05
92.1680,-9.53,2.71,2.08,-0.20,-0.08,-0.06
92.2500,-9.22,3.41,2.04,-0.43,-0.02,-0.06
92.3320,-10.32,2.43,1.02,-0.32,0.03,-0.11
92.4140,-10.12,1.33,0.90,-0.59,0.33,-0.02
92.4960,-13.26,7.57,7.14,-0.35,-0.27,0.23
92.5780,-6.32,2.43,2.55,0.33,0.54,0.08
92.6600,-7.96,4.28,4.12,-0.71,-0.16,0.25
92.7420,-8.79,4.04,4.47,0.25,-0.23,-0.15
92.8240,-8.55,2.12,3.41,0.16,-0.15,-0.24
92.9060,-9.10,3.61,3.49,0.13,-0.19,0.11
