NAME:,walk_125_3_2.csv,,,,,
EXPERIMENT TIME:,12/03/2024 7:32,,,,,
ACTIVITY TYPE:,Walking,,,,,
COUNT OF ACTUAL STEPS: ,120,,,,,
,,,,,,
Time [sec],ACC X,ACC Y,ACC Z,GYRO X,GYRO Y,GYRO Z
0,8.59,-1.14,-4.67,0.11,-0.26,-0.06
0.05999756,8.98,-0.82,-5.1,0.34,-0.27,-0.13
0.11999512,8.67,-2.35,-4.04,-0.49,-0.11,-0.09
0.17999268,9.26,-2.51,-3.57,0.02,-0.12,-0.15
0.25,9.73,-2.24,-5.45,0.92,0.07,-0.38
0.30999756,8.59,-1.18,-4.47,0.73,0.15,-0.47
0.36999512,9.61,-0.55,-4.75,1.13,0.09,-0.62
0.42999268,9.26,0.04,-4.16,0.94,0.3,-0.68
0.4900055,8.83,-0.67,-4.63,0.62,0.3,-0.65
0.55999756,8.12,-0.39,-4.08,0.84,0.13,-0.58
0.6199951,8.87,-0.55,-3.84,0.83,0.05,-0.4
0.6799927,8.75,-0.31,-3.33,1.01,0.21,-0.36
0.7400055,8.36,0.2,-2.94,0.83,-0.19,-0.33
0.80000305,9.85,0,-2.9,0.65,-0.5,-0.05
0.8699951,9.73,-0.75,-2.47,0.55,-0.17,-0.23
0.9299927,9.61,-1.45,-2.39,0.88,0.03,-0.27
0.9900055,12.63,-0.71,-7.61,1.91,-0.22,-0.49
1.050003,11.34,1.77,-7.41,3.08,-0.4,-0.58
1.1100006,5.26,-0.75,-4.82,-2.41,0.64,-0.37
1.1799927,8.63,-1.84,-3.77,-0.9,-1.1,0.97
1.2400055,10.47,-1.69,-5.22,0.86,-0.3,0.38
1.300003,7.37,-1.06,-4.67,0.54,0.89,-0.03
1.3600006,5.3,-1.49,-3.84,-0.29,0.83,0.26
1.4199982,8.04,-0.67,-4.12,-0.08,-0.55,0.51
1.4900055,9.34,0,-2.63,-1,0.23,0.2
1.550003,8.83,-0.82,-4,-1.14,0.64,0.08
1.6100006,9.18,-1.45,-2.63,-1.46,-0.09,0.35
1.6699982,12.79,-7.49,-12.12,-1.6,0.07,1.26
1.7299957,9.65,-1.69,-1.8,-2.13,0.7,1.75
1.800003,9.61,-1.49,-8.43,5.62,-0.1,0.43
1.8600006,8.28,-0.43,-5.57,-1.43,0.08,-1.97
1.9199982,4.9,-2.16,-2.9,-2.37,0.77,-0.15
1.9799957,6.08,-1.29,-1.84,0.32,-0.03,-0.57
2.0399933,6.55,-0.71,-3.37,2.65,-1.26,-0.34
2.1100006,9.61,-0.43,-4.28,1.34,-1.06,0.16
2.1699982,10.24,1.14,-3.02,1.36,0.25,-0.44
2.2299957,13.49,-2.12,-7.37,-0.27,-0.15,-0.52
2.2899933,11.77,-1.49,-9.77,0.17,-0.35,-0.97
2.3600006,5.53,-4.55,-6.83,-1.96,1.35,-1.57
2.4199982,8.36,0.51,-0.43,-1.75,0.17,0.03
2.4799957,15.02,-0.59,-6.86,4.48,-1.47,0.7
2.5399933,3.96,1.61,-3.8,1.01,2.53,-0.49
2.600006,4.55,-0.12,-2.79,-0.63,0.63,1.39
2.6699982,8.24,-0.59,-3.18,-2.05,-2.02,0.35
2.7299957,13.96,-5.1,-5.49,-2.87,-0.48,0.91
2.7899933,10.71,-3.49,-3.57,-2.35,1.35,0.32
2.850006,10.67,-5.45,-11.61,1.5,0.24,0.42
2.9100037,10.28,0.47,-5.49,1.91,-0.29,0.92
2.9700012,11.02,-0.51,-7.65,4.88,-0.14,-0.48
3.0399933,6.86,-0.86,-4.51,-3.05,0.13,-1.59
3.100006,5.18,-2.31,-1.77,-2.29,1.08,-0.01
3.1600037,5.73,-0.9,-1.49,2.26,-0.8,-0.42
3.2200012,7.1,-0.08,-2,3.33,-1.85,-0.32
3.2899933,12.59,-1.45,-7.92,1.02,-0.57,0.36
3.350006,10.75,-0.27,-5.26,1.31,-0.23,-0.43
3.4100037,14,-2.28,-11.77,-0.52,-0.59,-0.69
3.4700012,7.53,-1.88,-5.77,-0.14,0.91,-1.28
3.5299988,7.41,-2.86,-5.77,-3.46,1.28,-0.58
3.5899963,9.02,-1.29,-1.77,2.42,-1.18,2.11
3.6600037,3.73,1.77,-4.2,2.3,1.89,-1.54
3.7200012,4.67,0.86,-2.59,0.07,0.85,1.19
3.7799988,8,-0.04,-3.8,-2.53,-1.97,0.59
3.8399963,13.65,-4.43,-6.2,-4.1,-0.54,1.34
3.899994,10.47,-4.94,-4.04,-3.95,1.33,0.59
3.9700012,11.14,-8.32,-12.47,1.26,0.28,0.89
4.029999,10,0.98,-6,3.55,-0.91,0.57
4.0899963,12.51,-0.04,-10.08,6.16,0.15,-0.69
4.149994,6.2,-0.82,-4.67,-3.13,-0.05,-1.94
4.2100067,4.94,-1.96,-2.28,-4.07,0.37,0.19
4.279999,6.2,-2.59,-0.9,0.44,-0.09,0.06
4.3399963,7.53,-0.24,-2.12,3.17,-1.43,-0.67
4.399994,12.2,-0.16,-7.06,3.01,-0.46,0.21
4.4600067,11.77,0.9,-6.39,2.01,-0.1,-0.55
4.5200043,12.71,-1.57,-11.45,-0.55,-0.28,-0.63
4.5899963,8.43,-3.73,-6.12,-1.87,0.19,-0.91
4.649994,8.36,-3.26,-5.33,-3.62,1.29,0.44
4.7100067,10.16,-1.37,-3.02,3.73,-0.92,1.34
4.7700043,3.57,1.8,-3.8,2.35,2.16,-1.69
4.830002,4.63,1.06,-3.45,-0.75,-0.03,1.32
4.899994,8.51,-0.51,-3.61,-3.04,-1.94,1.05
4.9600067,13.02,-4.63,-6.98,-3.95,-0.54,1.12
5.0200043,9.34,-4.12,-4.24,-3.33,1.38,0.25
5.080002,11.81,-7.49,-10.75,0.92,-0.72,1.17
5.1399994,9.85,0.16,-6.43,4.07,0.35,0.26
5.2100067,9.3,-0.71,-8.87,6.63,0.35,0.28
5.2700043,7.02,0.16,-3.92,-1.82,-0.46,-1.96
5.330002,6.04,-2.82,-2.82,-3.95,0.18,0.47
5.3899994,6.94,-2.31,-1.14,0.05,-0.23,-0.18
5.449997,6.35,-0.55,-2.79,2.71,-0.84,-0.68
5.5200043,10.83,-1.02,-7.3,1.39,-1.62,0.54
5.580002,10.67,1.1,-2.35,0.71,0.33,-0.38
5.6399994,11.3,-1.18,-6,-0.25,0,-0.7
5.699997,10.43,-1.61,-8.55,0.66,-0.34,-0.88
5.7599945,5.88,-3.65,-5.88,-1.76,1.19,-1.08
5.830002,9.02,-0.75,-2.04,-1.08,0.12,0.54
5.8899994,11.73,-0.63,-5.69,3.78,-0.84,0.37
5.949997,4.59,1.53,-3.88,1.35,1.8,-0.26
6.0099945,5.73,0.27,-3.65,-0.77,-0.26,1.45
6.069992,8.08,-0.63,-3.92,-2.68,-1.19,0.67
6.1399994,11.45,-4.94,-4.35,-3.81,-0.28,0.62
6.199997,13.45,-5.37,-7.85,-4.99,1.29,0.5
6.2599945,10.9,-5.41,-5.77,1.21,-0.32,1.33
6.319992,7.88,1.29,-8.04,7.18,0.54,-0.32
6.380005,8.71,1.06,-3.92,4.19,0.23,-0.99
6.449997,6.79,-1.33,-4.9,-4.2,-0.53,-0.95
6.5099945,6.67,-3.14,-2.82,-4.17,-0.11,-0.09
6.569992,7.49,-2.04,-1.45,1.28,-0.69,-0.2
6.630005,8,0.08,-1.84,3.41,-1.2,-0.3
6.699997,11.14,1.18,-4.9,1.87,0.3,-0.22
6.7599945,12.12,-1.88,-6.12,-0.43,0.19,-0.61
6.819992,11.81,-2.63,-9.65,-1.38,-0.7,-0.94
6.880005,7.02,-5.49,-6.35,-1.73,1.37,-1.16
6.9400024,7.65,0,-0.04,-1.5,0.82,0.73
7.0099945,13.34,0.27,-6.79,4.7,-1.56,1.04
7.069992,3.61,1.69,-3.53,1.73,2.12,-1.1
7.130005,5.3,-0.2,-3.26,-1.89,-0.22,0.8
7.1900024,10.47,-1.84,-2.75,-3.37,-3.04,0.47
7.25,14.24,-6.43,-2.98,-2.92,0.79,1.35
7.319992,9.38,-3.02,-4.86,0.08,2.31,0.15
7.380005,8.32,-4,-7.85,1.54,-1.35,0.76
7.4400024,9.69,1.26,-5.06,3.22,-0.27,0.13
7.5,8.67,-0.94,-6.39,2.59,0.3,-1.7
7.5599976,6.67,-2.2,-3.61,-2.68,0.26,-0.06
7.619995,7.34,-2.43,-1.41,-0.07,0.18,-0.36
7.6900024,5.73,-0.35,-3.37,3.59,-0.66,-0.91
7.75,8.67,1.37,-3.73,1.8,-1.33,-0.01
7.8099976,11.73,0.39,-3.84,0.29,0.02,-0.06
7.869995,12.71,-2.47,-7.26,0.08,0.22,-0.46
7.9299927,11.14,-0.94,-10.32,0.51,-0.62,-0.59
8,6.04,-3.49,-4.75,-2.07,0.7,-0.96
8.059998,9.06,-0.2,-0.71,-1.43,0.4,1.14
8.119995,8.43,-0.98,-6.32,3.6,0.05,-0.06
8.179993,4.12,0.86,-4,0.87,1.85,-0.29
8.2400055,5.41,-0.75,-2.28,-1.88,-0.64,1.07
8.309998,13.22,-2.2,-5.96,-3.07,-1.88,0.9
8.369995,10.47,-4.67,-3.22,-2.13,1.29,0.06
8.429993,9.06,-4.79,-7.34,0.08,1.21,0.57
8.4900055,7.57,-2.12,-5.69,0.3,-1.17,0.23
8.679993,3.61,-1.8,-2.51,-1.77,0.89,-0.33
8.7400055,5.3,-0.75,-0.78,1.24,-0.85,-0.15
8.800003,8.59,-0.39,-2.31,3.76,-2.32,-0.3
8.869995,12.36,0.51,-8.16,2.3,0.09,0.16
8.929993,8.79,1.33,-3.77,0.78,0.29,-0.31
8.9900055,12.87,-2.43,-10.4,-1.8,-1.23,-0.26
9.050003,8.63,-3.61,-5.14,-1.02,0.63,-0.87
9.110001,7.02,-1.88,-4.94,-3.13,1.66,-0.83
9.169998,7.92,-1.06,-3.1,2.69,-1.17,2.45
9.2400055,4.28,0.86,-4.55,1.75,1.87,-1
9.300003,4.24,-0.35,-4.31,-1.44,1.3,0.57
9.360001,7.57,-2,-2.59,-3.48,-2.44,0.81
9.419998,17.26,-6.12,-5.57,-3.89,-0.32,1.54
9.479996,9.18,-3.61,-7.14,-0.93,2.46,-0.04
9.550003,10.36,-4.24,-9.34,2.01,-1.23,0.93
9.610001,8.24,2.04,-5.73,3.87,1.01,-0.44
9.669998,8.16,-0.67,-6.47,3.41,0.4,-0.75
9.729996,6.24,-1.14,-4.28,-4.05,-0.49,-0.45
9.800003,7.53,-3.18,-2.39,-3.6,-0.05,0.45
9.860001,7.53,-1.77,-2.12,1.92,-0.94,-0.7
9.919998,8.24,-0.43,-3.37,2.71,-0.5,-0.45
9.979996,9.38,0.12,-3.22,1.52,0.37,-0.2
10.039993,13.89,-1.49,-9.85,-0.18,-0.62,-0.2
10.100006,11.57,-2.59,-8.98,-0.24,-0.66,-0.61
10.169998,5.92,-4.47,-5.88,-2.35,1.66,-1.32
10.229996,8.08,0.47,-0.2,-1.21,0.69,0.79
10.289993,12.43,-0.67,-7.1,3.75,-0.88,0.49
10.350006,4.16,1.14,-3.26,-0.04,1.67,-0.14
10.410004,5.37,-0.16,-2.43,-1.68,-0.38,0.65
10.479996,11.22,-1.02,-6.43,-1.65,-1.36,0.67
10.539993,12,-5.65,-6.59,-4.13,-0.24,0.56
10.600006,12.4,-6.9,-8.16,-2.24,0.73,1.98
10.660004,10.94,-1.53,-4.2,3.5,-0.29,0.33
10.729996,7.73,0.27,-8.47,6.99,0.57,-0.26
10.789993,6.47,1.29,-3.45,0.2,0.07,-1.79
10.850006,6.71,-2.31,-3.61,-4.29,-0.57,0.53
10.910004,8.59,-2.98,-0.43,-1.57,-0.33,0.22
10.970001,8.28,-1.1,-1.8,2.61,-0.33,-0.71
11.029999,9.81,-0.31,-3.84,1.67,0.4,-0.4
11.100006,10.36,-1.8,-5.02,-0.2,-0.18,-0.24
11.160004,13.3,-2.12,-7.37,1.01,-1.46,-0.69
11.220001,6.71,-2.2,-4.9,-0.8,1.35,-1.23
11.279999,8.79,-0.63,-3.02,0.24,-0.11,0.97
11.350006,9.14,-0.67,-5.18,1.25,0.4,0.43
11.410004,4.16,-0.47,-3.3,-0.27,1.74,0.39
11.470001,5.73,-0.86,-2.2,-0.76,-0.8,0.45
11.529999,14.32,-2.28,-5.49,-2.43,-1.32,0.87
11.589996,11.14,-4.75,-3.3,-2.73,0.71,0.46
11.649994,10.9,-6.39,-9.22,0.1,0.24,0.61
11.720001,10.08,-0.47,-5.69,1.58,-0.79,0.52
11.779999,9.96,-0.27,-7.3,4.21,-0.54,-0.77
11.839996,6.55,-0.63,-3.14,-2.37,0.75,-0.88
11.899994,4.47,-2.24,-2.16,-1.46,0.65,-0.07
11.960007,5.57,-1.1,-1.73,1.72,-1.17,-0.22
12.029999,9.69,-0.86,-3.84,2.62,-1.86,-0.28
12.089996,12.47,1.37,-5.26,1.72,0.34,-0.04
12.149994,12.59,-1.02,-14.16,-0.39,0.38,-0.93
12.210007,7.53,-3.65,-5.22,-1.67,0.18,-0.51
12.270004,7.81,-2.86,-4.9,-3.29,0.94,-0.63
12.339996,10.36,-1.02,-3.57,3.57,-0.75,1.51
12.399994,3.77,1.37,-3.53,2.07,1.45,-1.14
12.460007,4.04,0.08,-2.59,-1.27,0.85,0.63
12.520004,8,-1.92,-3.92,-3.11,-2,0.63
12.710007,7.26,-1.06,-6.2,2.09,-0.19,0.07
12.770004,13.49,0.16,-8,4.44,-1.76,1.06
12.830002,7.34,-0.24,-4.16,-0.41,1.09,-2.41
12.889999,4.16,-2.79,-3.88,-3.94,0.72,-0.22
12.960007,4.55,-2.55,-0.08,-0.57,0.51,0.17
13.020004,6.98,-1.06,-2.24,3.38,-2.29,-0.23
13.080002,14.12,0.08,-7.45,3.82,-1.22,-0.32
13.139999,12.08,-1.02,-9.69,1.57,0.89,-0.54
13.199997,10.83,-1.77,-7.53,-1.13,-0.85,-0.1
13.270004,8.24,-5.41,-6.86,-2.86,0.56,-0.59
13.330002,10.59,-1.14,-1.22,-0.05,0.76,2.09
13.389999,4.94,-0.39,-5.26,3.46,0.73,-0.11
13.449997,3.77,1.37,-2.79,0.92,1.6,-0.38
13.520004,6.35,-0.31,-3.18,-2.93,-1.07,0.7
13.580002,12.91,-3.96,-5.69,-3.92,-1.24,1.11
13.639999,13.45,-4.94,-5.37,-2.97,1.03,0.79
13.699997,9.92,-5.26,-8.59,1.33,0.28,1.01
13.7599945,8.94,1.22,-7.57,4.52,-0.24,0.15
13.830002,9.3,0.86,-5.92,3.49,0.3,-0.71
13.889999,7.26,-0.94,-4.67,-4.16,-0.33,-0.67
13.949997,6.08,-3.18,-2.04,-3.83,0.76,0.61
14.0099945,6.71,-1.84,-0.78,0.96,-0.5,-0.23
14.069992,10.2,-0.71,-3.84,2.96,-1.77,-0.44
14.130005,10.94,0.39,-2.75,1.24,0.7,-0.28
14.199997,11.53,-1.18,-9.26,0.31,0.28,-0.55
14.2599945,10,-1.14,-8.32,-0.17,-0.56,-0.44
14.319992,8.04,-3.73,-6.59,-2.28,0.72,-0.45
14.380005,9.92,-1.77,-2.55,-1.33,0.42,1.71
14.449997,4.39,-0.16,-4.24,2.57,1,-0.47
14.5099945,3.69,0.94,-2.43,0.4,1.46,-0.18
14.569992,7.3,-0.24,-3.73,-2.05,-1.27,1.04
14.630005,14.63,-2.94,-3.77,-3.86,-0.32,1.18
14.690002,10.75,-4.24,-5.81,-3.56,1.43,0.7
14.7599945,7.34,-4.35,-6.32,-0.47,-0.23,0.57
14.819992,11.26,-0.51,-6.43,3.24,-1.16,0.49
14.880005,11.18,0.71,-6,1.3,0.09,-1.92
14.940002,4.9,-1.37,-2.59,-1.5,1.51,-0.31
15,4.04,-1.53,-1.84,-0.5,0.8,-0.63
15.059998,5.92,-1.57,-1.69,1.66,-1.83,-0.07
15.130005,13.3,-0.31,-5.92,2.66,-1.2,-0.03
15.190002,11.69,-0.08,-7.18,2.5,0.19,-0.58
15.25,11.1,-2.31,-8.67,-1.26,-0.81,-0.38
15.309998,8.28,-3.18,-5.02,-1.13,0.5,-1.11
15.380005,10.12,-1.69,-3.02,-1.13,0.44,0.71
15.440002,6.75,-0.08,-4.47,3.46,0.72,0.34
15.5,3.49,1.26,-3.49,0.79,1.75,-0.39
15.559998,5.26,-0.2,-2.79,-2.05,-0.65,0.72
15.619995,10.75,-2.59,-5.61,-3.57,-1.4,0.99
15.679993,15.65,-6.39,-6.28,-3.54,-0.07,0.98
15.75,9.65,-5.69,-7.73,-0.33,1.26,0.71
15.809998,7.69,0.04,-4.35,2.75,-0.77,0.06
15.869995,12,0.63,-6.98,4.32,-1.06,-0.54
15.929993,8.63,-0.31,-4.43,-1.83,0.84,-0.6
15.9900055,3.92,-1.49,-1.61,-1.71,1.19,-0.44
16.059998,5.1,-1.02,-0.24,0.88,-0.74,-0.19
16.119995,12.51,-0.47,-4.59,1.98,-2.18,0.06
16.179993,12.36,0.67,-5.22,1.12,0.39,-0.25
16.240005,12.24,-0.27,-11.3,0.42,-0.22,-0.86
16.309998,9.38,-3.41,-7.34,-1.34,0.07,0.2
16.369995,8.2,-2.51,-4.86,-3.2,1.41,-0.13
16.429993,7.61,-1.33,-3.02,1.56,-0.82,1.32
16.490005,4.71,0.67,-3.69,1.22,1.62,-0.66
16.550003,4.59,-0.31,-2.16,-1.71,0.02,0.69
16.61,10.16,-2.16,-4.35,-2.78,-1.54,0.8
16.679993,14.12,-3.73,-1.14,-2.41,0.52,0.61
16.740005,9.06,-3.33,-8.08,0.3,1.69,0.29
16.800003,7.65,-0.27,-4.51,0.11,-1.05,0.36
16.86,13.69,-0.12,-7.57,4.3,-0.91,0.12
16.919998,6.86,0,-3.88,-1.08,1.11,-1.96
16.990005,3.88,-1.88,-3.02,-2.25,0.74,-0.07
17.050003,4.82,-1.57,-0.31,-0.26,-0.07,-0.25
17.11,9.85,-1.14,-3.57,2.75,-2.2,-0.08
17.169998,12.94,0.9,-6.2,2.8,0.51,-0.4
17.229996,11.18,-1.57,-9.1,-0.16,0.52,-0.59
17.300003,10.94,-3.45,-7.53,-1.85,-1.07,-0.57
17.36,7.45,-4.35,-4.82,-1.98,1.1,-0.63
17.419998,9.69,-0.94,-2.55,1.02,-0.03,1.72
17.479996,5.14,0.43,-5.3,3.74,1.09,-0.8
17.550003,3.37,1.18,-3.49,-0.63,1.55,0.05
17.61,6.24,-0.67,-3.06,-2.72,-1.43,1.08
17.669998,15.26,-3.49,-6.39,-3.85,-1.4,1.32
17.729996,10.79,-5.02,-6.9,-3.34,1.16,0.33
17.789993,10.47,-4.94,-6.12,0.59,-1.07,1.31
17.86,7.57,0.59,-6.9,4.67,1.05,-0.65
17.919998,8.43,0.12,-7.53,5.06,0.26,-0.14
17.979996,8,-0.08,-4.51,-2.61,-0.6,-0.63
18.039993,6.39,-3.77,-3.26,-4.52,0.35,0.52
18.100006,6.83,-1.73,-0.31,0.23,-0.28,-0.08
18.160004,8.87,-1.61,-4.39,2,-1.45,-0.73
18.229996,11.85,-1.84,-4.35,1.15,-0.01,-0.03
18.289993,9.41,-1.49,-5.33,1.19,0.05,-0.52
18.350006,9.92,-1.18,-11.92,1.62,-0.58,-0.1
18.410004,8.39,-1.77,-5.69,-0.71,0.71,-0.61
18.479996,10.55,-2.47,-5.73,-5.75,0.39,0.29
18.539993,8.04,-3.18,-3.1,0.04,0.14,0.9
18.600006,4.59,-0.9,-2.75,1.06,1.42,-0.26
18.660004,9.49,2.08,-1.26,1.25,-0.94,0.92
18.720001,8.43,-1.61,-3.96,-2.16,1.01,-0.45
18.789993,10.67,-4.94,-6.32,-3.23,-0.97,0.62
18.850006,10.28,-5.88,-7.34,-1.69,0.17,0.67
18.910004,11.22,-0.59,-5.26,3.73,0.16,0.06
18.970001,11.34,0.78,-6.43,6.47,-0.28,-0.92
19.029999,4.75,0.63,-3.14,-0.54,0.74,-0.48
19.100006,3.53,-1.53,-2.31,-1.98,0.17,-0.56
19.160004,7.02,-1.49,-0.04,-0.74,-1.78,0.37
19.220001,12.47,-1.41,-6.47,3.45,-0.82,-0.51
19.279999,12.36,0.47,-8.75,2.3,-0.38,-0.46
19.339996,10.75,-1.84,-8.71,-1.15,-0.64,-0.27
19.399994,8.47,-5.73,-5.88,-3.18,0.8,-0.61
19.470001,10.63,-0.94,-0.98,-0.55,0.37,1.65
19.529999,4.24,-0.63,-5.22,4.06,1.46,-0.32
19.589996,3.61,1.8,-3.18,1.9,2.2,-0.41
19.649994,6.47,0.39,-2.31,-2.56,-1.26,1.21
19.710007,14.28,-2.75,-5.41,-5.41,-0.97,1.47
19.899994,8.59,-0.12,-4.63,1.79,-1.09,0.37
19.960007,16,-1.61,-8.08,3.6,-0.92,-0.16
20.020004,5.14,-0.55,-2.12,-1.88,1.69,-1.4
20.089996,3.73,-1.96,-1.96,-0.39,0.76,-0.33
20.149994,5.45,-1.22,-0.27,1.86,-1.8,-0.37
20.210007,11.69,-0.31,-4.12,2.64,-1.98,-0.14
20.270004,11.26,1.61,-4.12,2.3,0.21,-0.46
20.330002,12.83,-1.1,-12.12,-0.92,-0.11,-0.58
20.399994,9.49,-4.24,-6.63,-1.62,0.72,-0.6
20.460007,10,-0.67,-3.65,-2.18,0.74,0.58
20.520004,6.28,-0.78,-4.16,3.75,0.13,0.66
20.580002,3.53,0.55,-4.82,0.68,1.55,-0.56
20.64,5.26,-1.06,-3.33,-2.27,-0.34,1.21
20.710007,12.55,-1.41,-2.39,-4.19,-2.28,1.06
20.770004,12.43,-6.55,-2.12,-3.71,1.91,0.54
20.830002,9.18,-4.04,-5.69,1.91,0.64,0.34
20.89,12.67,0.35,-6.2,3.08,-1.5,0.6
20.949997,11.26,1.73,-8.63,5.95,0.26,0.39
21.020004,6.47,-0.75,-2.79,-2.07,0.49,-2.29
21.080002,4.67,-2.94,-5.14,-6.13,-0.24,-0.25
21.14,9.1,-5.3,2.12,-1.03,0.05,0.25
21.199997,7.49,0.04,-3.14,4.47,-1.51,-0.6
21.270004,11.02,1.73,-8.24,3.88,-1.04,-0.66
21.330002,9.85,-0.71,-6,0.06,0.46,-0.32
21.39,12.94,-2.43,-8.94,-2,-1.17,-0.38
21.449997,7.85,-6.08,-6.28,-1.94,1.35,-0.77
21.509995,7.53,0.16,0.24,-1.08,1.91,0.59
21.569992,10.67,-0.35,-5.77,4.97,-0.93,1.19
21.64,4.39,1.96,-3.37,1.77,1.33,-0.95
21.699997,6.04,-0.55,-2.82,-2.71,-0.55,0.62
21.759995,10.04,-2.31,-3.8,-3.94,-1.02,0.81
21.819992,10.63,-5.45,-3.3,-3.15,0.01,0.41
21.880005,11.38,-4.47,-6.12,-0.21,0.76,0.87
21.949997,8.47,-3.22,-7.26,-0.03,0.11,1.02
22.009995,13.57,-0.43,-7.34,3.61,-1.48,0.81
22.069992,7.53,-0.75,-5.14,0.48,1.04,-2.77
22.130005,4.43,-2,-2.28,-2.19,0.65,0.21
22.199997,6.16,-1.88,-1.1,-0.16,0.07,-0.17
22.259995,8.16,-0.31,-2.35,2.77,-1.94,-0.39
22.319992,13.65,0.39,-4.75,1.37,-0.7,0.04
22.380005,7.53,-0.31,-4.35,0.27,1.89,-0.55
22.440002,10.71,-1.53,-8.08,-1.01,-1.1,-0.21
22.509995,15.49,-2.63,-9.77,0.06,-1.87,0.55
22.569992,4.47,-2.31,-4.39,-1.19,2.38,-1.32
22.630005,6.98,1.14,-2.16,-0.33,0.47,0.64
22.690002,11.14,-0.04,-7.14,0.94,-0.78,0.61
22.75,5.77,-1.14,-3.3,-2.29,1.15,0.96
22.809998,8.16,-1.14,-0.27,-1.64,-0.65,0.61
22.880005,10.63,-4.12,-5.26,-1.66,0.23,0.25
22.940002,7.1,-1.26,-2.71,-1,1.09,0.17
23,11.57,-5.53,-14.59,2.39,-0.02,0.96
23.059998,15.42,1.22,-6,-0.91,-2.99,2.32
23.130005,8.08,-0.43,-6.43,0.37,2.46,-2.4
23.190002,3.53,-1.49,-3.77,-3.93,2.47,-1.46
23.25,3.26,-1.18,0.08,-3.23,0.65,0.28
23.309998,7.49,-1.22,-1.45,1.94,-3.46,0.39
23.369995,18.12,-1.33,-4.35,3.29,-2.79,-0.02
23.429993,9.06,1.06,-3.88,0.52,2.71,-0.69
23.5,11.73,0.24,-14.2,0.23,1.22,-0.03
23.559998,9.92,0.08,-5.3,0.32,-1.89,1.49
23.619995,8.67,-3.37,-6.51,-5.02,1.86,0.21
23.679993,6.2,-1.49,-2.16,-1.73,0.84,1.16
23.740005,4.43,-0.78,-5.69,0.29,0.96,0.29
23.809998,6.59,-0.86,-3.41,-1.19,-0.08,0.97
23.869995,11.92,-3.73,-4.86,-3.82,-0.78,1.31
23.929993,13.1,-3.22,-0.27,-2.01,0.91,0.99
23.990005,10.32,-3.41,-10.32,2.13,1.3,0.13
24.050003,10.9,0.98,-5.61,-0.73,-0.5,0.61
24.119995,8.67,-1.53,-5.96,2.58,0.21,0.4
24.179993,8.16,-1.61,-4.28,-3.77,-0.2,-0.6
24.240005,5.53,-3.53,-2,-1.85,1.4,0.12
24.300003,4.08,-0.59,-1.06,1.2,0.19,-0.9
24.36,9.02,-0.51,-2.28,2.6,-2.39,0.09
24.429993,16.08,1.57,-6.55,3.34,0.16,-1.05
24.490005,8.94,-1.22,-12.12,-0.1,1.56,-0.81
24.550003,7.57,-0.82,-5.22,-0.76,-0.6,0.5
24.61,9.57,-4.08,-6.08,-2.93,-0.09,0.48
24.679993,9.92,-1.92,-3.65,-0.56,1.21,1.71
24.740005,3.18,-0.47,-4.94,1.31,2.12,-0.35
24.800003,3.65,0.35,-2.63,-0.47,1.75,0.04
24.86,6.94,-1.1,-3.41,-3.06,-1.98,1.03
24.919998,18.55,-6.39,-5.88,-5.39,-1.27,2.2
24.979996,10.75,-4.67,-6.16,-2.21,3.02,0.73
25.050003,6.51,-4.31,-7.3,1.89,-0.22,-0.62
25.11,10.9,1.18,-7.22,5,-1.51,1.15
25.169998,8.63,-0.2,-5.73,2.15,0.07,-2.45
25.229996,3.3,-1.8,-3.49,-3.52,0.97,-0.72
25.289993,4.35,-2.63,-1.33,-1.46,0.55,-0.41
25.479996,11.38,1.77,-5.88,1.68,0.18,-0.79
25.539993,12,-0.9,-13.3,-2.18,1.01,-0.53
25.61,7.85,-0.82,-4.16,0.4,-0.63,-0.01
25.669998,8.16,-3.3,-6.16,-4.46,0.59,-0.03
25.729996,8.28,-1.8,-1.96,1.61,-0.18,1.94
25.789993,4.12,-0.27,-4.71,1.3,1.36,-0.65
25.850006,5.37,-0.43,-3.1,-0.78,0.18,0.98
25.919998,10,-1.77,-3.02,-2.73,-1.3,0.88
25.979996,11.06,-3.61,-2,-2.73,1.04,0.35
26.039993,11.85,-4.67,-10.43,0.2,0.75,0.24
26.100006,13.69,-1.96,-5.33,1.03,-1.01,0.76
26.160004,7.69,1.14,-7.37,5.28,0.99,0.05
26.220001,6.08,0,-2.59,1.02,0.32,-1.03
26.289993,5.57,-1.84,-5.33,-4.77,-1.06,-0.32
26.350006,7.18,-4.35,0.2,-2.21,0.78,0.44
26.410004,6.32,-1.18,-1.61,3.01,-0.84,-0.82
26.470001,12.91,-0.39,-6.24,3.11,-1.86,-0.21
26.539993,13.42,-0.78,-9.45,1.51,0.11,-0.56
26.600006,11.61,-2.55,-8.75,-0.87,-0.14,-0.49
26.660004,5.81,-4,-4.98,-2.46,1.09,-0.56
26.720001,7.85,-1.96,-1.69,-2.75,0.49,0.89
26.779999,8.24,-1.65,-3.57,3.01,-0.94,0.88
26.850006,4.9,1.14,-3.73,2.65,1.55,-0.55
26.910004,6.04,0.71,-2.55,-0.59,-0.18,0.51
26.970001,10.63,-2.43,-5.77,-3.69,-0.79,0.89
27.029999,12.75,-5.37,-2.86,-3.88,-0.19,0.59
27.089996,12,-7.45,-10.71,0.7,1.32,0.94
27.160004,9.57,1.02,-4.04,1.86,-0.43,0.13
27.220001,12.4,-0.75,-9.34,6.13,-1.12,0.47
27.279999,5.26,-0.12,-2.9,-2.24,0.59,-2.49
27.339996,3.26,-1.57,-2.86,-3.36,0.65,-0.45
27.399994,5.57,-1.33,1.53,-0.58,-0.08,0.35
27.589996,10.08,0.2,-8.24,-0.39,1.23,-0.52
27.649994,9.3,-0.75,-8.51,-0.5,-1.2,0.49
27.710007,6.55,-4.31,-5.41,-3.51,0.81,-0.36
27.770004,6.51,0.39,-1.18,-2.36,1.14,1.18
27.839996,6.08,-1.37,-7.77,2.15,-0.41,1.07
27.899994,5.41,-1.33,-4.2,-0.57,1.19,-0.28
27.960007,8.79,-2.2,-1.69,-3.84,-2.52,1.02
28.020004,12.98,-4.67,-4.98,-2.82,0.37,0.67
28.089996,7.92,-2.12,-4.79,2.19,0.51,-0.2
28.149994,14.2,-4.2,-11.53,1.81,-0.31,0.51
28.210007,7.88,1.88,-2.86,-1.9,1.71,0.41
28.270004,8.32,-3.14,-5.18,3,-0.19,0.5
28.330002,8.24,-1.26,-4.2,-3.63,-0.08,-0.05
28.39,5.61,-2.9,-2.63,-0.95,0.92,-0.25
28.460007,4.98,-0.08,-1.65,1.14,-0.17,-0.69
28.520004,9.73,-0.78,-2.28,1.59,-1.62,-0.01
28.580002,12.79,0.39,-4.39,1.83,0.82,0.09
28.64,8.67,-3.06,-9.69,-0.05,0.62,-1.23
28.699997,10.83,-0.98,-9.34,0.31,-1.27,0.05
28.770004,8.63,-4.71,-6.32,-2.04,-0.64,-0.99
28.830002,8.59,-1.49,-2.08,-1.58,1.41,1.03
28.89,4.24,-0.55,-4.86,4.44,0.92,0.01
28.949997,3.88,1.33,-4.79,3.68,1.62,-0.51
29.009995,6.35,0.75,-2.31,-0.88,-1.29,1.01
29.080002,15.18,-3.18,-7.3,-6.1,-2.42,2.17
29.14,10.59,-6.98,-3.14,-4.34,2.48,0.63
29.199997,11.61,-6.63,-10.2,2.12,-0.39,0.14
29.259995,9.69,-0.78,-6.51,2.77,0.54,-0.11
29.330002,7.92,-1.84,-9.3,5.09,0,0.66
29.39,8.39,0.98,-3.84,-0.38,-0.14,-0.96
29.449997,5.65,-2.67,-4.12,-4.03,0.21,0.6
29.509995,6.2,-4.08,0,-2.25,0.78,0.09
29.569992,6.28,-2.04,-2.39,2.25,-0.79,-0.71
29.630005,10.98,-1.41,-6.2,3.28,-1.17,-0.17
29.699997,14.16,-0.98,-11.53,3.4,-1.3,-1.27
29.759995,11.57,-0.82,-10.32,-0.75,-0.31,-0.27
29.819992,6.08,-5.45,-6.24,-2.89,1.51,-1.1
29.880005,6.94,0.27,0.9,-1.74,0.47,-0.42
29.940002,13.69,-1.06,-7.06,3.72,-1.77,0.94
30.009995,3.96,0.9,-2.47,1.77,2.14,-0.76
30.069992,4.51,0.47,-2.39,0.14,0.39,0.6
30.130005,9.61,-0.55,-3.41,-2.28,-2.23,0.97
30.190002,13.49,-5.3,-4.98,-3.15,0.73,0.65
30.259995,9.92,-4.16,-5.88,-0.69,1.43,0.65
30.319992,11.65,-3.33,-7.26,0.73,-1.01,0.29
30.380005,6.39,0.47,-5.61,3.76,0.42,0.32
30.440002,11.22,-1.02,-4.67,0.82,-1.07,-0.63
30.5,5.65,-2.39,-2.59,-2.94,0.87,0.46
30.569992,5.73,-1.88,-2.39,-0.64,0.05,-0.74
30.630005,6.35,-1.33,-1.61,1.03,-1.13,-0.19
30.690002,11.18,-1.73,-5.96,1.11,-1.35,0.08
30.75,11.96,0.75,-3.73,2.13,0.03,-0.52
30.940002,8.63,-4.47,-6.39,-3.05,0.43,-0.31
31.119995,3.8,0.47,-2.94,0.39,0.72,-0.39
31.179993,8.16,-1.06,-3.14,-2.81,-1.75,0.82
31.25,15.81,-3.14,-3.53,-2.66,0.29,0.58
31.309998,8.28,-2.43,-4.28,-0.92,1.28,-0.08
31.369995,12,-7.1,-10.55,-0.48,-0.74,0.18
31.429993,7.69,-0.75,-0.86,-0.06,1.5,0.6
31.490005,9.96,-2.51,-6.67,5.2,-0.84,-0.25
31.559998,6.47,0.67,-4.79,0.52,0.3,-1.14
31.619995,5.37,-1.53,-3.69,-1.05,0.32,-0.05
31.679993,6.9,-2,-2.08,-0.23,-0.93,-0.29
31.740005,10,-1.49,-2.9,1.03,-0.59,-0.09
31.800003,10.43,-0.82,-4.04,2.02,0.45,-0.73
31.869995,9.38,-3.06,-6.24,0.1,-0.02,-0.44
31.929993,12.16,-3.1,-9.41,0.8,-0.95,-0.26
31.990005,7.49,-3.65,-5.77,0.24,0.81,-1.27
32.050003,10.04,-2.39,-3.84,-2.26,0.29,0.13
32.11,11.45,-1.26,-5.06,3.69,0.1,0.59
32.179993,3.02,0.31,-3.49,2.25,2.4,-0.72
32.240005,4.2,0.12,-2.86,-0.33,-0.38,0.63
32.300003,9.18,-0.98,-3.49,-2.16,-2.87,0.79
32.36,15.3,-4.82,-3.33,-3.31,0.58,0.83
32.42,9.38,-3.45,-4.2,-1.87,1.72,0.12
32.490005,10.43,-7.06,-10.47,-0.62,-0.7,-0.19
32.550003,7.73,0.04,-5.3,4.7,-0.2,0.03
32.61,9.38,-0.67,-5.77,5.08,0.18,-0.8
32.67,6.43,-0.71,-4.28,-1.63,0.32,-0.12
32.740005,5.77,-1.8,-2.35,-1.15,0.08,-0.54
32.800003,7.41,-1.96,-2.9,1.17,-1.12,-0.4
32.86,9.18,-1.22,-3.73,1.13,-0.51,-0.37
32.92,10,-0.47,-2.12,1.3,0.24,-0.43
32.979996,12.75,-3.84,-8.28,0.73,-0.33,-0.45
33.17,6.71,0.12,-0.51,-0.87,0,-0.75
33.229996,12.63,-0.75,-7.65,4.28,-1.13,0.69
33.289993,4.47,1.06,-3.69,1.43,1.89,-0.61
33.350006,5.69,-0.39,-2.67,-0.74,-0.66,1.05
33.42,12.28,-1.06,-2.28,-2.47,-1.68,0.8
33.479996,11.34,-4.51,-4.59,-1.89,1.96,0.02
33.539993,8.32,-2,-4.71,-0.79,1.41,0.17
33.600006,10.36,-4.98,-8.75,0.61,-2.18,0.72
33.789993,6.04,-0.78,-3.92,-2.38,-0.08,0
33.979996,10.71,0.35,-5.69,1.3,-0.41,-0.2
34.039993,10.24,1.18,-4.35,1.31,0.5,-0.66
34.100006,10.75,-1.37,-10,-0.54,-0.13,-0.75
34.160004,11.77,-1.84,-5.57,-0.09,-0.83,-0.34
34.22,6.83,-3.45,-6.16,-2.13,1.64,-0.88
34.28,8.2,-2.08,-2.08,0.74,0.37,1.44
34.350006,7.85,-0.71,-6.39,3.02,-0.22,-0.27
34.410004,4.94,1.18,-3.69,0.82,0.88,0.41
34.47,6.04,0.78,-2.67,-1.38,-0.83,0.73
34.53,11.61,-1.88,-6.39,-3.07,-0.63,0.93
34.600006,10,-5.84,-5.37,-3.58,0.6,0.32
34.660004,11.73,-7.73,-8.79,-2.26,0.63,1.12
34.72,11.18,-2.08,-3.57,2,-0.57,0.41
34.78,9.45,-1.84,-10.47,8.27,-0.14,0.36
34.839996,6.79,1.77,-3.8,0.08,-0.33,-2.15
34.899994,5.77,-2.43,-3.18,-3.62,-0.05,0.41
34.97,6.79,-1.88,-1.02,-1.21,-0.3,-0.32
35.03,7.45,-0.86,-1.84,2.58,-0.92,-0.54
35.089996,10.9,-0.16,-5.61,1.11,-0.54,0.22
35.149994,8.63,1.22,-2.9,1.3,0.34,-0.52
35.22,12.75,-1.57,-10.98,-0.62,-0.77,-0.49
35.28,12.16,-2.12,-6.67,0.25,-0.49,-0.58
35.339996,5.3,-4.35,-6.98,-3.66,2.13,-1.45
35.399994,7.14,0.04,0.75,0.42,-0.12,1.28
35.460007,11.06,-0.9,-7.92,3.66,-0.81,0.15
35.520004,4.98,1.18,-4.39,0.78,1.31,0.5
35.589996,5.88,-0.55,-2.43,-1.95,-0.21,0.88
35.649994,10.32,-2.35,-4.98,-2.87,-1.37,0.68
35.710007,11.14,-5.3,-3.14,-3.29,0.52,0.22
35.770004,10.63,-3.14,-4.43,0.43,0.86,1.01
35.83,7.18,-4.08,-11.02,1.24,0.19,0.53
35.899994,15.89,-0.43,-8.32,2.87,-2.24,1.49
35.960007,8,-2.16,-4.43,-0.59,1.24,-2.91
36.020004,2.55,-1.92,-1.65,-2.6,2.41,-0.73
36.08,3.3,-0.71,0.16,1.5,0.28,-0.23
36.149994,5.92,-0.75,-2.94,3.84,-3.35,0.64
36.210007,14.79,0.2,-8.79,2.46,-2.24,0.03
36.270004,10.63,-0.94,-9.22,0.85,0.94,-0.65
36.33,16.67,-2.24,-7.88,0.09,-2.27,-0.2
36.39,5.92,-6.39,-7.06,-2.92,2.84,-1.21
36.449997,6.55,-0.24,-0.86,-1.92,1.8,-0.31
36.520004,7.45,-1.77,-6.51,4.74,-2.69,2.06
36.58,6.12,2.12,-3.73,2.38,1.52,-1.4
36.64,4.67,-0.2,-2.67,-1.83,0.89,0.52
36.699997,6.39,-0.27,-1.57,-3.09,-0.82,0.37
36.759995,11.06,-2.79,-3.88,-1.79,-0.41,0.47
36.83,10.16,-1.06,-1.22,-1.55,0.49,0.33
36.89,10.63,-4.98,-11.38,0.51,-0.14,1.2
36.949997,14.12,-2.55,-4.82,-1.4,0.04,1.77
37.009995,11.57,-2.55,-7.85,1.78,0.64,-1.99
37.08,4.35,-1.88,-2.59,-1.67,1.18,-0.83
37.14,3.84,-2.04,-2.24,0.98,0.92,-0.66
37.199997,4.59,-0.12,-2.67,3.15,-1.52,-0.27
37.259995,11.49,-0.51,-3.53,3.51,-2.93,0.6
37.319992,9.53,0.86,-5.22,1.46,1.69,-0.24
37.39,9.34,-1.37,-4.47,1.57,-0.5,-0.12
37.449997,13.65,-1.61,-11.02,-1.68,-0.96,-0.16
37.509995,9.34,-3.33,-6.28,0.62,0.02,-1.27
37.569992,8.94,-1.02,-3.57,-3.41,2.32,0.21
37.630005,11.61,-0.59,-5.65,3.27,-0.62,0.88
37.690002,3.84,0.94,-3.8,0.61,1.08,-0.73
37.759995,6.51,-0.39,-3.92,-1.74,-1.03,1.25
37.819992,8.87,-1.02,-3.73,-2.2,-0.76,0.82
37.880005,11.73,-1.06,-4.82,-1.63,-0.77,0.56
37.940002,8.43,-4.28,-5.18,-3,1.46,0.08
38,8.59,-2.51,-5.26,-1.9,0.47,1.29
38.069992,9.69,-3.41,-6.2,-0.4,-1.71,1.37
38.130005,10.87,-0.43,-6.98,2.26,0.17,0.12
38.190002,7.1,-3.02,-6.12,0.14,0.7,-1.14
38.25,6.39,-3.3,-4.51,-1.67,0.73,-0.53
38.319992,6.79,-2.75,-5.69,2.64,0.44,-1.04
38.380005,8.12,-0.08,-6.98,5.49,-1.13,-0.43
38.440002,9.61,1.57,-8.98,4.36,-0.18,-0.93
38.5,5.65,1.33,-5.45,0.41,0.8,-0.73
38.559998,7.61,-0.31,-3.14,-2.64,-0.39,0.44
38.630005,13.73,-4.51,-2.79,-1.88,-0.67,0.72
38.690002,7.37,-2.43,-4.04,-0.33,1.65,-0.27
38.75,9.96,-0.55,-7.65,2.29,-1.07,-0.26
38.809998,10.32,-4.55,-7.65,-1.88,-0.48,0.99
38.869995,6.47,-0.67,-4.94,-0.36,1.1,-0.14
38.929993,13.96,0.27,-5.69,0.21,-2.11,0.69
39,6.67,-1.77,-2.86,-1.33,1.28,0.63
39.059998,6.2,-1.33,-4.04,-0.5,-0.01,0.21
39.119995,7.85,-0.63,-3.26,-0.48,-0.41,0.24
39.179993,9.38,-3.22,-4.55,-1.74,-0.19,-0.04
39.240005,9.57,-4.82,-4.63,-1.92,0.71,0.08
39.309998,11.26,-3.22,-10.32,2,0.61,-0.04
39.369995,11.85,-0.35,-5.88,0.83,-0.89,0.39
39.429993,7.1,-1.02,-6.75,2.61,1.17,-0.64
39.490005,8.16,-2.59,-4.86,-2.55,-0.52,-1.39
39.550003,8.43,-3.69,-3.02,0.5,0.28,0.32
39.619995,6.39,-0.67,-4.2,3.83,0.2,-1.75
39.679993,5.3,0.24,-3.57,3.06,-0.18,-0.58
39.740005,9.61,1.33,-3.45,1.35,-1.51,0.17
39.800003,11.45,1.1,-5.57,1.3,0.41,-0.56
39.869995,11.1,-2.86,-10.51,-1.65,0.11,-0.75
39.929993,9.81,-5.26,-5.57,0.04,-1.05,-0.99
39.990005,8.04,-2.94,-4.43,-2.14,1.09,-0.13
40.17,5.22,0.24,-2.75,-0.92,-0.58,1
40.240005,11.81,-2.2,-2.08,-3.06,-1.45,0.74
40.300003,9.69,-4.35,-5.3,-1.95,1.48,0.07
40.36,7.37,-3.14,-6.67,-1.24,0.85,-0.25
40.42,12.4,-5.53,-9.22,-0.11,-2.01,1.31
40.479996,10.08,1.22,-4.63,3.29,1.3,-0.3
40.550003,6.71,-1.33,-5.37,3.68,1.54,-1.17
40.61,6.9,-0.94,-4.28,-3.18,-1.23,-0.24
40.67,7.06,-3.8,-1.73,-1.35,0.41,0.14
40.729996,6.2,-1.8,-3.06,2.99,-0.71,-0.87
40.800003,8.75,0.2,-3.41,3.19,-1.7,-0.39
40.86,12.08,0.2,-6.43,1.56,0.41,-0.54
40.92,10.75,-2.28,-7.3,0.6,0.51,-0.83
40.979996,12.12,-3.77,-7.26,-1.54,-0.91,-0.7
41.039993,8.43,-5.18,-5.45,-1.4,0.98,-0.92
41.100006,10.08,-1.37,-0.31,0.32,0.91,1.46
41.17,6.83,-0.35,-4.94,4.96,0.68,-0.57
41.229996,4.08,1.22,-3.18,0.81,1.28,-0.33
41.289993,5.92,-0.31,-2.51,-1.47,-1.22,0.8
41.350006,11.92,-1.29,-6,-1.99,-1.11,0.88
41.410004,10.67,-5.14,-6.32,-2.99,0.41,0.16
41.479996,12.24,-7.53,-9.89,-1.49,0.17,1.52
41.539993,8.79,-0.75,-3.61,1.73,0.73,0.04
41.600006,8.83,-0.98,-6.43,4.55,-0.44,-0.86
41.660004,7.34,-0.04,-3.96,-1.76,-0.2,-0.57
41.729996,5.49,-1.84,-2.04,-1.55,0.6,-0.12
41.789993,7.02,-0.43,-2.71,1.57,-1.05,0.03
41.850006,9.92,2,-3.45,2.39,-1.31,0
41.910004,8.94,-1.73,-5.57,-0.89,0.75,0.02
41.97,8.98,-1.22,-7.69,0.54,0.3,-0.01
42.039993,16,-1.02,-12.79,0.43,-2.83,-0.3
42.100006,7.3,-4.75,-4.9,-3.2,1.9,-0.63
42.160004,4.98,-2.39,-3.69,-3.76,2.95,-0.81
42.22,6.04,-0.67,-4.04,3.39,-1.71,1.89
42.28,7.69,1.92,-4.28,2.18,0.68,-0.74
42.339996,6.9,-0.94,-3.84,-2.79,0.43,1.08
42.410004,5.96,-1.45,-1.1,-3.42,0.1,0.3
42.47,10.67,-2.16,-4.63,-1.07,-1.28,0.6
42.53,9.61,-3.37,-2.98,-1.76,0.53,0.11
42.589996,12.55,-6.51,-11.26,0.12,-0.43,1.27
42.649994,9.14,0.08,-4.04,1.15,1.06,1.02
42.72,11.65,-1.37,-7.34,4.36,-0.61,0.57
42.78,8.2,-1.29,-4.51,-3.08,0.74,-1.5
42.839996,4.55,-2.82,-1.53,-2.13,1.17,-0.16
42.899994,5.45,-0.86,-1.77,2.21,-1.02,-0.69
42.960007,9.65,0.08,-2.51,3.54,-2.19,-0.24
43.03,10.79,-0.55,-6.67,0.62,1.07,-0.16
43.089996,7.06,0.47,-3.33,1.22,0.71,-0.32
43.149994,13.81,-1.1,-10.59,-0.63,-2.54,-0.24
43.210007,10.36,-3.69,-6.9,-0.6,0.95,-1.83
43.28,6.83,-2.51,-4.75,-3.36,2.19,-0.54
43.339996,7.18,-0.86,-2.08,3.59,-0.83,2.16
43.399994,6.24,0.98,-4.08,3.82,0.17,-0.49
43.460007,5.45,0.31,-3.45,-1.02,0.16,0.56
43.520004,8.71,-1.8,-2.79,-2.8,-1.16,0.92
43.58,11.18,-3.53,-5.61,-2.01,0.09,0.3
43.649994,8.24,-4.24,-4.43,-1.49,0.88,-0.21
43.710007,12.2,-5.61,-8.71,0.6,-0.47,0.75
43.770004,10,-2.55,-6.2,-0.15,0.68,0.79
43.83,9.96,-0.9,-8.83,5.07,-0.36,0.49
43.89,8.24,0.9,-3.96,-0.58,-0.02,-2
43.960007,5.65,-2.86,-1.92,-2.2,0.67,0.24
44.020004,5.73,-1.1,-1.06,0.18,-0.08,-0.85
44.08,7.26,-0.39,-1.61,2.95,-1.26,-0.37
44.14,13.96,-0.82,-7.73,1.26,-0.86,0.44
44.210007,7.41,2.28,-1.88,1.12,1.38,-0.57
44.270004,13.26,0,-9.96,-0.61,-2.01,-0.36
44.33,11.81,-4.28,-6.04,-1.13,0.71,-0.79
44.39,5.3,-3.77,-6.83,-3.9,2.56,-1.29
44.449997,7.02,-0.27,1.02,1.19,-0.3,1.4
44.509995,11.49,-0.31,-7.81,3.57,-0.64,-0.04
44.58,4.75,-0.04,-3.3,-0.67,1.25,0.43
44.64,5.57,-0.16,-1.33,-1.44,-0.72,0.5
44.699997,11.92,-1.26,-7.1,-1.51,-1.52,0.87
44.759995,10.67,-4.79,-4.63,-3.14,0.24,0.27
44.819992,12.4,-5.22,-4.55,-1.02,0.19,1.56
44.89,9.34,-2.51,-6.83,1.4,1.22,0.08
44.949997,7.73,-1.88,-8.47,5.12,0.1,0.82
45.009995,11.34,1.22,-4.75,0.64,-1.12,-1
45.069992,6.75,-2.86,-2.12,-2.02,0.68,0.29
45.14,4.94,-1.18,-1.61,0.01,-0.1,-1.02
45.199997,6.43,-0.43,-0.78,1.5,-1.26,0.03
45.259995,13.77,-1.37,-7.41,0.94,-0.69,0.09
45.319992,9.53,-0.59,-6,0.91,0.73,-0.52
45.380005,12.98,-1.02,-8.36,-0.74,-1.16,-0.62
45.630005,3.45,0.63,-2.94,0.1,2.73,-0.76
45.690002,3.73,-0.78,-2.16,-2.43,1.41,0.46
45.75,7.81,-1.73,-2,-3.07,-3.09,0.86
45.819992,17.69,-5.92,-5.45,-2.15,-0.05,0.86
45.880005,8.28,-2.08,-3.26,-0.39,2.11,0.13
45.940002,8.94,-3.92,-9.1,0.98,-1.36,0.46
46,8.51,1.06,-4.86,1.3,0.17,0.64
46.069992,10.36,-1.45,-6.51,3.85,-0.13,-0.18
46.130005,7.65,-1.77,-3.65,-3.18,0.39,0.18
46.190002,5.41,-2.86,-1.61,-0.92,0.86,-0.86
46.25,5.96,-1.41,-0.39,2.38,-0.81,-0.38
46.309998,10.9,-0.04,-7.06,2.75,-1.43,-0.32
46.380005,11.77,1.92,-4.55,3,-0.22,-0.56
46.440002,11.45,-0.94,-9.41,-1.86,-0.59,-0.78
46.5,10.04,-5.18,-6.94,-1.62,0.43,-0.85
46.559998,8.16,-3.06,-6,-1.94,1.17,-0.41
46.619995,12.79,-0.2,-4.86,3.21,-0.41,1.43
46.690002,3.22,1.29,-2.71,2.45,2.24,-1
46.75,3.84,0.2,-2.55,-1.28,0.65,0.58
46.809998,7.96,-1.22,-2.39,-2.77,-2.95,0.81
46.869995,16.44,-4.28,-3.02,-2.65,0.43,0.95
46.929993,9.81,-3.02,-5.65,-1.22,1.91,0.24
46.990005,12.83,-4.12,-6.94,0.17,-1.6,0.94
47.059998,6.28,1.69,-4.12,3.47,1.01,-0.2
47.119995,10.32,-0.27,-5.14,3.03,-0.5,-0.14
47.179993,7.41,-1.61,-4.63,-3.19,0.5,0.18
47.240005,5.69,-2.47,-1.92,-2.13,0.35,-0.59
47.300003,6.51,-1.65,-0.98,1.66,-0.93,-0.44
47.369995,12.36,-0.78,-5.49,2.46,-1.65,-0.09
47.429993,10.55,1.49,-3.53,2.1,0.46,-0.71
47.490005,11.69,-0.67,-11.53,-0.41,-0.17,-0.85
47.550003,10.08,-3.8,-7.37,-1.3,0.32,-0.39
47.61,8.36,-2.63,-5.81,-2.84,0.94,-0.34
47.679993,10.59,-0.55,-3.53,2.14,-0.03,1.46
47.740005,3.73,0.71,-4.24,1.45,1.88,-0.77
47.800003,3.92,-0.47,-2,-1.8,0.38,0.75
47.86,7.69,-1.45,-1.77,-3.16,-2.17,0.7
47.929993,15.3,-3.92,-2.59,-2.61,0.03,0.47
47.990005,10.4,-3.65,-7.41,0.24,1.34,0.02
48.050003,11.77,-2.04,-6.08,-0.15,-0.71,0.83
48.11,6.94,0.35,-5.81,3.83,0.28,0.2
48.17,10.43,0.59,-5.26,-0.55,-0.5,-0.91
48.229996,6.79,-2.28,-2.98,-1.95,0.73,0.3
48.300003,5.49,-1.49,-1.22,-0.72,-0.03,-0.72
48.36,7.3,-1.26,-1.14,1.51,-0.86,-0.15
48.42,10.59,-0.43,-5.02,1.18,-0.54,-0.02
48.479996,10.2,1.61,-4.43,2.6,-0.68,-0.71
48.539993,13.22,-1.14,-11.57,-0.95,-0.8,-0.36
48.61,8.2,-4.63,-5.33,-2.23,0.97,-1.04
48.67,9.41,-3.02,-3.1,-2.89,1.06,0.04
48.729996,9.77,-0.82,-3.06,4.14,-0.88,1.41
48.789993,3.65,1.45,-3.65,3.61,2.3,-1.04
48.86,4.31,1.26,-2.39,-1.24,0.85,0.59
48.92,8.79,-1.53,-3.88,-3.86,-2.5,0.65
48.979996,14.79,-6.43,-4.47,-4.86,-0.05,1.65
49.039993,10.98,-6.98,-8.28,-0.59,1.68,0.54
49.100006,8.83,-0.43,-4.51,2.04,-0.71,0.69
49.160004,10.67,-3.14,-7.41,4.46,-1.12,0.17
49.229996,7.73,-0.55,-4.12,-1.25,0.56,-1.1
49.289993,4,-1.49,-1.49,-1.04,0.91,-0.35
49.350006,6.24,-0.55,-0.98,1.54,-1.32,-0.11
49.410004,13.22,0.27,-4.47,2.12,-1.83,-0.25
49.47,8.98,0.27,-2.82,0.67,1.24,-0.37
49.539993,11.02,-2.51,-9.96,-0.86,-0.48,-0.73
49.600006,11.73,-4,-8.59,0.2,-0.35,-0.55
49.660004,8.83,-2.75,-4.79,-1.87,0.69,-0.78
49.72,10.94,-0.51,-2.51,1.75,0.36,1.5
49.97,16.32,-5.53,-3.37,-4.58,-1.22,1.54
50.03,11.77,-6,-7.57,-1.31,1.77,1.11
50.100006,7.85,-2.12,-6.16,1.01,-0.15,0.12
50.28,5.14,-2.98,-3.73,-3.94,0.11,0.33
50.339996,5.57,-2.35,-0.55,-2.26,0.25,-0.33
50.399994,6.63,-1.37,-1.22,2.26,-1.23,-0.48
50.47,12.4,-0.98,-6.47,2.55,-1.51,-0.01
50.53,10.63,1.49,-4.71,2.11,0.2,-0.7
50.710007,9.53,-1.45,-3.06,-2.09,0.45,0.07
50.78,11.77,0.31,-5.45,3.69,-0.1,0.7
50.839996,2.86,0.98,-3.65,1.72,2.93,-0.74
50.899994,3.57,0.39,-1.84,-1.19,1.05,0.73
50.960007,10,-1.84,-4.98,-3.89,-3.52,0.86
51.020004,14.95,-6.98,-2.75,-5.49,0.72,1.73
51.089996,10.12,-4.35,-5.06,0.68,1.67,0.48
51.149994,9.65,-1.84,-6.67,2,-1.07,0.27
51.210007,8.12,1.29,-5.3,4.32,0.08,0.51
51.270004,9.81,-0.31,-3.77,0.4,-0.13,-1.47
51.339996,6.2,-3.22,-3.33,-3.54,0.42,0.49
51.399994,5.88,-2.39,-1.14,-1.11,0.18,-0.42
51.460007,5.88,-1.41,-1.14,2.3,-0.9,-0.65
51.520004,11.1,-0.63,-6.32,2.11,-1.63,0.11
51.58,13.26,0.08,-5.77,2.4,-0.66,-0.63
51.64,10.12,-2.55,-8.71,-1.18,0,-1.11
51.710007,7.88,-4.39,-5.22,-1.51,0.54,-0.99
51.770004,10.24,-2.04,-2.12,-1.04,0.11,1.3
51.83,8.36,-0.94,-5.49,4.28,0.92,-0.02
51.89,3.06,1.06,-3.73,2.51,2.55,-1.08
51.949997,4.79,0.2,-0.43,-1.64,-0.43,0.76
52.020004,15.34,-1.06,-7.3,-4.61,-3.57,1.11
52.08,11.73,-5.77,-6.24,-3.75,1.53,0.44
52.14,11.3,-7.57,-10.04,0.57,0.05,0.3
52.199997,8.63,-0.71,-4.35,1.83,-0.18,0.59
52.270004,8.67,-2.47,-7.92,5.39,-0.19,0.42
52.33,8.04,-0.12,-4.28,-1.25,-0.43,-1.04
52.39,5.37,-2.55,-2.59,-2.16,0.56,0.01
52.569992,10.16,0.94,-3.45,2.17,0.13,-0.59
52.64,12.2,-1.33,-9.77,-0.93,-0.14,-0.76
52.699997,9.49,-3.61,-7.37,-0.59,0,-0.8
52.759995,10.08,-3.53,-5.96,-2.48,0.58,0.19
52.819992,10.47,-0.67,-2.51,1.11,0.51,1.77
53.009995,8.2,-2.04,-3.45,-3.51,-2.96,1.14
53.199997,6.67,-2.79,-5.81,0.64,-1.21,-0.3
53.259995,10.63,1.02,-5.65,4.8,-0.84,0.71
53.319992,7.77,0.31,-4.55,1.2,0.45,-2.38
53.509995,8.51,-1.88,-2.75,2.75,-1.91,-0.43
53.569992,11.85,-0.47,-6.55,3.03,-0.24,-0.41
53.630005,11.45,-1.1,-8.43,1.6,0.07,-0.48
53.809998,9.77,-1.1,-2.28,-1.26,0.88,1.18
54,4.35,0.31,-0.16,-2.98,-0.63,1.03
54.059998,15.93,-1.06,-6.98,-4.4,-3.82,1.39
54.130005,12.12,-6,-4.67,-4.91,1.64,0.41
54.190002,10.59,-7.53,-8.63,0.18,1.18,0.54
54.25,10.79,-0.67,-5.84,1.16,-1.06,0.33
54.309998,9.81,-2.39,-8.39,5.87,-0.51,0.94
54.369995,7.81,-0.47,-3.49,-1.32,0.3,-1.82
54.429993,4.98,-2.55,-3.02,-3.05,0.62,0.04
54.619995,10.16,-0.39,-7.92,2.42,0.08,-0.36
54.809998,5.96,-4.9,-5.02,-2.66,2.02,-1.26
54.869995,6.63,-0.78,-0.39,-0.94,1.52,0.21
54.929993,9.53,-0.75,-4.79,4.42,-1.62,1.38
54.990005,4.59,1.41,-3.41,1.65,1.18,-1.06
55.050003,5.84,-0.04,-2.35,-2.29,-0.34,0.83
55.119995,10.98,-2.59,-5.96,-2.79,-1.61,0.83
55.179993,12.59,-4.28,-3.61,-2.43,0.15,0.52
55.240005,11.14,-4.86,-8.98,0.04,1.46,0.32
55.300003,9.3,-2.31,-6.43,-0.48,-0.05,0.64
55.36,9.02,-1.61,-8.36,4.68,-0.97,0.71
55.429993,8.67,0.35,-4.79,1.61,-0.14,-1.67
55.490005,5.22,-2.59,-3.22,-2.5,0.62,0.37
55.550003,5.41,-1.77,-0.98,-0.28,0.09,-0.51
55.61,7.73,-1.18,-1.84,2.68,-1.69,-0.43
55.679993,11.49,-0.59,-6.59,1.86,0.39,0.04
55.740005,9.65,-1.92,-5.61,0.91,0.44,-0.37
55.800003,12.51,-0.47,-7.53,-0.68,-1.86,-0.37
55.86,7.22,-4.31,-5.1,-1.81,1.61,-0.66
55.92,7.34,-0.98,-2.59,-1.77,1.43,0
55.990005,11.45,-0.04,-6.59,3.17,-1.51,1.46
56.050003,4.55,0.94,-3.02,0.03,1.94,-0.61
56.11,4.86,-0.47,-1.29,-2.55,0.29,0.83
56.17,11.41,-3.06,-5.14,-3.13,-1.66,0.82
56.229996,12.91,-4.75,-3.14,-2.69,0.58,0.61
56.289993,9.96,-3.8,-8.08,2.11,1.1,0.06
56.36,9.3,-0.47,-6.35,-0.19,-0.23,0.38
56.42,8.47,-2.16,-7.45,3.64,-0.24,0.97
56.479996,11.85,-1.14,-5.26,-1.17,-1.09,-0.92
56.539993,5.45,-2.51,-2.75,-0.63,0.93,-0.4
56.600006,4.39,-1.29,-1.77,0,-0.07,-1.03
56.67,8.24,-1.26,-2.16,1.24,-1.37,0.01
56.729996,13.38,-0.08,-6.51,2.72,-0.76,-0.33
56.789993,10.4,-3.26,-9.41,-0.49,0.72,-0.64
56.850006,11.96,-3.69,-7.3,0.02,-1.21,-0.51
56.92,6.75,-5.22,-6.2,-2.32,1,-0.73
56.979996,7.37,0,0.55,0.57,0.79,1.51
57.039993,7.69,-0.98,-7.06,3.75,-0.66,-0.29
57.100006,4.98,0.98,-3.73,0.4,0.98,-0.04
57.160004,8.67,0.04,-2.2,-1.71,-0.94,0.75
57.22,10.75,-4,-5.73,-3,0.64,0.24
57.289993,10.16,-4.63,-5.84,-1.69,0.11,0.38
57.350006,9.34,-5.41,-7.26,-0.09,-0.49,0.54
57.410004,10.24,0.75,-6.71,3.49,0.06,0.33
57.47,8.43,0.08,-5.69,4.09,0.33,-1.06
57.53,6,-0.82,-4.31,-3.25,0.03,-0.13
57.600006,5.33,-2.28,-1.73,-2.26,0.11,0.02
57.660004,7.18,-1.61,-1.37,2.02,-1.3,-0.31
57.72,12.4,-0.47,-6.71,2.12,-1.59,-0.42
57.78,11.22,-0.39,-7.73,1.99,0.06,-0.62
57.850006,12.67,-1.37,-10.4,-0.28,-0.71,-0.67
57.910004,6.98,-5.53,-5.96,-3.24,1.52,-0.48
57.97,7.22,-2.24,-1.92,-1.9,1.68,0.21
58.03,10.51,-0.55,-4.98,4.07,-1.88,1.18
58.089996,4.28,1.26,-3.73,1.82,1.61,-1.19
58.149994,5.33,-0.31,-2.28,-1.97,0.12,0.76
58.22,11.38,-2.71,-5.18,-3.56,-1.57,1.08
58.28,11.34,-4.04,-1.37,-1.58,0.82,-0.02
58.339996,10.4,-4.94,-8.24,0.47,0.98,0.54
58.399994,9.41,0.12,-4.39,0.6,-0.85,0.41
58.460007,11.34,-0.78,-7.69,4.03,-0.66,0.62
58.53,7.61,-0.82,-4,-1.79,0.86,-1.29
58.589996,3.73,-2.28,-2.31,-2.73,1.06,-0.03
58.649994,5.22,-1.88,0.43,0.4,-0.56,-0.11
58.710007,12.94,-1.1,-5.02,2.96,-3,-0.19
58.770004,11.53,1.65,-4.82,2.66,1.03,-0.97
58.839996,8.79,-1.02,-8.98,-1.15,0.94,-1.07
58.899994,10.04,-2.67,-7.37,-0.52,-1.54,-0.4
58.960007,8.83,-3.41,-6.47,-1.76,0.48,0
59.020004,11.96,-0.51,-5.1,1.49,0.41,1.48
59.08,3.61,0.59,-4.08,1.61,1.55,-0.5
59.149994,3.57,-0.24,-2.9,-1.08,1.14,0.55
59.210007,6.12,-1.45,-1.96,-2.79,-2.03,0.65
59.270004,15.18,-4.47,-5.84,-2.93,-0.44,1.1
59.33,10.75,-4.2,-5.26,-1.89,1.6,0.15
59.520004,8.32,-0.94,-6.94,3.48,0.16,0.29
59.58,10,-0.59,-5.06,-3.6,-1.09,-0.04
59.64,5.81,-2.94,-1.41,-2.18,1.02,-0.29
59.699997,4.98,-1.26,-1.77,1.05,-0.11,-0.79
59.89,11.53,-2.12,-10.28,-0.56,1.11,-0.95
60.08,8.87,-1.96,-0.94,0.38,0.26,1.7
60.259995,8.24,0.16,-1.57,-2.4,-1.26,0.98
60.449997,12.47,-0.9,-3.73,0.74,-0.9,0.14
60.509995,7.34,-0.9,-6.94,4.63,0.42,-0.01
60.569992,10.87,0.94,-5.37,-0.12,-1.67,-0.46
60.759995,11.69,-1.96,-1.88,0.79,-1.64,0.29
60.819992,11.34,1.18,-4.67,3.38,0.27,-1.13
60.880005,8.43,-2.43,-8.08,-0.44,0.6,-0.8
60.940002,11.49,-3.61,-8.83,-0.47,-1.54,0.05
61.009995,8.67,-4.31,-6.59,-0.58,0,-1.22
61.069992,9.81,-0.82,-3.02,1.24,0.56,1.19
61.130005,4.16,0.47,-4.79,3.18,1.93,-0.49
61.190002,3.33,0.98,-3.57,0.41,1.94,0.04
61.259995,6.28,0.16,-1.88,-2.19,-2.37,1.14
61.319992,18.59,-3.37,-7.26,-4.98,-1.96,2.03
61.380005,10.47,-5.69,-10.87,-2.78,3.14,-0.02
61.440002,5.18,0.2,-2.08,-0.06,-0.37,-0.4
61.5,14.28,-1.61,-7.45,3.69,-2.34,1.08
61.569992,9.57,-1.53,-5.81,-1.05,1.46,-1.56
61.630005,2.43,-1.61,-2.51,-1.88,2.19,-0.69
61.690002,3.1,-0.82,-0.43,0.1,1.28,-0.53
61.75,7.1,-1.29,-3.69,2.59,-3.55,0.68
61.809998,19.57,1.37,-7.49,3.98,-2.15,-0.33
61.869995,9.89,-1.41,-10.28,-0.41,2.15,-1.61
61.940002,7.06,-1.84,-8.16,-0.49,-0.25,-0.07
62,8.75,-3.57,-6.55,-1.79,-1.2,-0.4
62.059998,11.65,-1.14,-4.59,0.49,1.06,1.87
62.119995,3.49,0,-4.31,1.56,2.21,-0.62
62.179993,3.14,0.27,-2.28,-0.7,1.28,0.46
62.25,6,0.04,-2.16,-2.03,-2.08,0.82
62.309998,15.53,-4.43,-6.35,-3.08,-1.7,1.11
62.369995,12.2,-4,-7.26,-3.26,2.17,0.93
62.429993,6.08,-3.8,-7.88,1.01,0.46,0.13
62.490005,13.65,0.94,-7.1,4.19,-2.35,1.43
62.559998,11.02,-0.63,-6.28,0.23,0.99,-2.9
62.619995,2.98,-2.24,-4.04,-3.28,1.5,-0.76
62.679993,3.1,-2.24,-0.16,-0.97,1.25,-0.5
62.740005,6.04,-0.71,-1.1,3.04,-2.22,0.16
62.809998,14.79,-0.71,-7.81,4.22,-2.46,0.12
62.869995,12.08,2.28,-6.51,1.71,0.47,-0.53
62.929993,10.71,-1.84,-11.34,-1.7,0.42,-0.55
62.990005,8.75,-1.49,-4.51,-0.55,0.03,-0.49
63.050003,10.75,-1.96,-3.88,-3.01,0.57,1.12
63.11,6.83,-0.2,-3.53,2.61,1.31,0.68
63.179993,4.08,1.18,-4.2,0.08,1.93,-0.37
63.240005,5.1,-0.55,-2.35,-3.45,-0.83,1.09
63.300003,10.12,-3.06,-4.2,-4.01,-1.66,1.09
63.36,11.85,-4.71,-2.16,-2.82,0.49,0.56
63.42,11.41,-5.06,-9.41,1.27,0.79,0.54
63.490005,12.59,-0.63,-5.18,0.51,-0.59,0.73
63.550003,8.83,-0.35,-8.55,5.78,0.57,0.71
63.61,7.92,0.24,-3.8,-0.51,-0.51,-1.35
63.67,6.35,-3.3,-3.69,-3.41,0.51,0.51
63.740005,5.69,-2.24,-0.67,-1.38,0,-0.91
63.800003,7.77,-2.35,-1.02,1.48,-1.1,-0.08
63.86,11.92,-0.82,-6.16,2.15,-0.54,0.22
63.92,9.92,-1.33,-8.94,3.11,0.77,-0.86
63.979996,10.47,-0.35,-8.47,0.48,-1.07,-0.65
64.05,8.75,-5.73,-5.96,-4.39,0.23,0.38
64.11,8,-1.8,-1.26,-0.64,1.96,1.09
64.17,7.34,-0.71,-5.77,4,-0.62,0.17
64.229996,5.69,1.02,-4.9,1.3,0.35,-0.08
64.28999,8.08,-1.65,-4.35,-3.02,-0.74,1
64.350006,9.14,-2.79,-2.43,-3.13,0.22,0.52
64.42,9.41,-4.12,-6.35,-0.3,0.65,-0.31
64.479996,6.83,-1.8,-2.12,-1,1.15,-0.11
64.53999,11.26,-3.57,-8.55,1.34,-1.46,0.54
64.600006,10.67,-3.92,-7.18,-2.28,0.18,1.12
64.67,7.45,-0.27,-6.67,2.79,0.23,0.49
64.729996,8.28,-0.35,-4.12,0.83,0.08,-1.06
64.78999,10.4,-3.53,-4.28,-2.03,0.12,0.75
64.850006,6,-1.8,-2.86,0.31,0.77,-1.08
64.91,5.81,-0.78,-3.33,1.56,-0.14,-0.38
64.979996,9.49,-1.06,-3.37,0.71,-1.46,0.24
65.03999,12.67,-1.84,-5.49,0.52,0.5,0.06
65.100006,7.49,-0.82,-4.9,1.42,1.66,-0.56
65.16,9.06,-1.65,-6.16,-0.49,-1.8,-0.52
65.22,9.89,-5.18,-7.18,-1.47,-0.81,0.14
65.28,5.69,-1.29,-4.2,0.65,1.54,-0.28
65.350006,7.37,-0.75,-6.47,3.82,-0.85,0.49
65.41,11.81,-0.51,-6.9,0.1,-1.12,0.85
65.47,7.53,-3.1,-5.14,-2.98,0.92,0.1
65.53,6.75,-2.63,-4.39,-1.98,0.08,0.21
65.59,8.63,-2.28,-4.86,0.11,-0.61,0.37
65.66,10.71,-2.35,-6.83,-0.19,-0.06,0.12
65.72,8.04,-2.47,-4.12,-1.17,1.29,0.05
65.78,7.85,-2.08,-4.43,0.1,0.47,0.02
65.84,9.14,-2.2,-5.69,-0.57,-0.01,0.25
65.899994,8.67,-1.33,-5.26,0.04,0.08,0.27
65.97,7.14,-1.18,-5.88,-0.03,0.35,0.02
66.03,8.24,-1.26,-5.53,-0.75,-0.56,0.16
66.09,9.57,-0.9,-5.26,-0.47,-0.5,0.12
66.149994,8.75,-0.86,-4.86,-0.32,0.42,-0.16
66.21001,9.1,-0.51,-4.9,-0.02,-0.14,-0.15
66.28,8.79,-0.55,-4.94,-0.06,0.03,-0.1
66.34,8.28,-0.86,-5.02,-0.11,0.01,-0.03
66.399994,9.1,-1.1,-5.18,0.26,-0.16,0.06
66.46001,8.32,-1.77,-4.59,0.27,0.3,-0.06
66.520004,8.98,-0.75,-4.59,0.72,0.05,0.04
66.59,9.34,-0.55,-6,1.38,-0.17,-0.23
66.649994,7.53,-1.61,-5.37,-0.31,0.56,-0.14
66.71001,7.41,-2.35,-4.9,0.13,-0.03,0.01
66.770004,9.85,-1.61,-5.26,1.12,-0.75,-0.06
66.83,8.63,-0.98,-5.22,0.85,0.43,-0.26
66.899994,7.73,-1.61,-5.02,0,0.29,-0.08
66.96001,8.79,-1.88,-5.14,0.15,-0.22,0.02
67.020004,9.02,-2.08,-5.14,0.08,0.06,-0.02
67.08,8.59,-2.24,-4.55,0.09,0.14,-0.01
67.14,8.59,-1.77,-4.75,0.26,0.05,-0.02
67.21001,8.55,-1.73,-4.9,0.11,0.05,-0.01
67.270004,8.94,-2.16,-4.55,-0.12,-0.03,0.01
67.33,8.83,-1.92,-4.71,0.13,0.12,-0.02
67.39,8.55,-1.8,-4.79,0.05,0.06,0
67.46001,8.71,-1.77,-4.79,0.02,0.03,0
67.520004,8.79,-1.73,-4.79,0.02,0.05,0
67.58,8.67,-1.73,-4.63,-0.04,0.03,0.01
67.64,8.87,-1.65,-4.79,0.03,0.03,0.01
67.7,8.71,-1.73,-4.75,0.01,0.05,0.01
67.759995,8.83,-1.69,-4.75,0.08,0.04,-0.01
67.83,8.63,-1.57,-4.75,0.07,0.04,0.01
67.89,8.83,-1.53,-4.75,0.06,0.01,0
67.95,8.79,-1.65,-4.71,0.05,0.05,0
68.009995,8.71,-1.57,-4.79,0.08,0.05,0.01
68.06999,8.83,-1.61,-4.67,-0.01,0.02,0.02
68.14,8.63,-1.61,-4.71,0.02,0.07,0
68.2,8.71,-1.61,-4.79,0.04,0.04,0.01
68.259995,8.79,-1.69,-4.67,0.02,0.03,0
68.31999,8.71,-1.69,-4.67,0.08,0.05,0
68.39,8.75,-1.57,-4.79,0.07,0.03,-0.01
68.45,8.79,-1.61,-4.71,0.07,0.05,0
68.509995,8.71,-1.53,-4.79,0.1,0.03,0
68.56999,8.67,-1.65,-4.67,-0.01,0.04,0.02
68.630005,8.83,-1.65,-4.79,0.08,-0.02,0
68.7,8.75,-1.49,-4.71,0.11,0.05,0.01
68.759995,8.67,-1.65,-4.67,0,0.03,0.02
68.94,8.79,-1.49,-4.9,0.05,0.02,0.02
69,8.75,-1.61,-4.82,0.04,0.04,0.01
69.06999,8.75,-1.49,-4.9,0.05,0.04,0.01
69.130005,8.75,-1.73,-4.75,-0.01,0.03,0.02
69.19,8.63,-1.65,-4.82,0.06,0.05,0
69.25,8.75,-1.53,-4.94,0.07,0.01,0.02
69.31999,8.71,-1.69,-4.79,-0.03,0.04,0.02
69.380005,8.63,-1.69,-4.82,0.04,0.04,0.01
69.44,8.79,-1.53,-4.94,0.05,0.02,0.02
69.5,8.63,-1.65,-4.79,-0.01,0.04,0.02
69.56,8.63,-1.53,-4.79,0.03,0.03,0.02
69.630005,8.67,-1.69,-4.9,0.01,0.02,0.02
69.69,8.63,-1.73,-4.82,0.05,0.03,0.02
69.75,8.71,-1.49,-4.94,0.08,0.04,0.02
69.81,8.63,-1.61,-4.86,-0.01,0.04,0.03
69.869995,8.67,-1.69,-5.02,0,0.01,0.03
69.92999,8.67,-1.77,-4.98,0.03,0.02,0.02
70,8.63,-1.61,-4.94,0.07,0.02,0.01
70.06,8.51,-1.57,-4.86,0.05,0,0.02
70.119995,8.87,-1.61,-4.94,0.03,-0.05,0.03
70.17999,8.63,-1.65,-4.98,0.06,0.1,0
70.240005,8.59,-1.65,-4.86,0.06,0.01,0.01
70.31,8.55,-1.65,-4.86,0.06,0.02,0.01
70.369995,8.63,-1.73,-5.06,0.01,-0.01,0.03
70.42999,8.71,-1.69,-4.9,0.04,0.05,0
70.490005,8.47,-1.61,-4.94,0.08,0.08,-0.01
70.55,8.67,-1.69,-4.94,0.04,0.01,0.01
70.619995,8.59,-1.69,-4.98,0.08,0.03,0
70.67999,8.59,-1.73,-5.1,0.04,0.02,0.02
70.740005,8.67,-1.57,-4.94,0.08,0.03,0.01
70.8,8.59,-1.77,-5.1,-0.01,0.04,0.01
70.869995,8.59,-1.61,-5.06,0.11,0.01,0.01
70.92999,8.59,-1.73,-4.98,0.01,0.05,0.01
70.990005,8.51,-1.73,-5.06,0.08,0.03,0.01
71.05,8.59,-1.69,-5.06,0.05,0.01,0.01
71.240005,8.63,-1.73,-5.02,0.02,0.05,0.01
71.3,8.55,-1.73,-5.06,0.06,0.04,0.01
71.36,8.63,-1.65,-5.1,0.06,0.07,0.01
71.42,8.47,-1.69,-5.02,0.03,0.04,0.02
71.479996,8.59,-1.73,-5.06,0.01,0.03,0.02
71.55,8.55,-1.73,-5.14,0.06,0.06,0
71.61,8.59,-1.73,-5.14,0.06,0,0.01
71.67,8.59,-1.61,-5.22,0.06,0.04,0.01
71.729996,8.43,-1.69,-5.06,0.02,0.04,0.01
71.8,8.63,-1.69,-5.18,0.06,0.03,0.01
71.86,8.55,-1.84,-5.06,0,0.04,0.01
71.92,8.36,-1.69,-5.1,0.11,0.05,0
71.979996,8.63,-1.69,-5.22,0.05,0.03,0.01
72.03999,8.51,-1.73,-5.1,0.05,0.06,0.01
72.11,8.59,-1.73,-5.14,0.04,0.03,0.02
72.17,8.55,-1.73,-5.1,0.07,0.07,0
72.229996,8.55,-1.65,-5.1,0.06,0.04,0.01
72.28999,8.59,-1.65,-5.26,0.05,0.04,0.01
72.350006,8.51,-1.84,-4.98,-0.01,0.05,0.01
72.41,8.59,-1.8,-5.14,0.06,0.02,0
72.479996,8.63,-1.73,-5.18,0.08,0.04,0
72.53999,8.59,-1.69,-5.06,0.05,0.05,0
72.600006,8.59,-1.73,-5.06,0.08,0.05,0
72.66,8.47,-1.69,-5.06,0.06,0.06,0.01
72.729996,8.59,-1.69,-5.06,0.04,0.03,0.01
72.78999,8.59,-1.69,-5.14,0.08,0.05,0
72.850006,8.55,-1.65,-5.02,0.05,0.01,0.01
72.90999,8.59,-1.69,-4.98,0.03,0.05,0.01
72.969986,8.55,-1.73,-5.18,0.09,0.05,0
73.030014,8.59,-1.69,-5.1,0.06,0.05,0.01
73.09999,8.51,-1.69,-5.02,0.04,0.05,0
73.15999,8.55,-1.69,-5.06,0.05,0.05,0
73.219986,8.59,-1.65,-5.06,0.06,0.05,0.01
73.280014,8.59,-1.69,-4.98,0.06,0.05,0.01
73.34001,8.59,-1.69,-4.9,0.05,0.05,0.01
73.40999,8.63,-1.77,-4.98,0.05,0.05,0.01
73.469986,8.59,-1.65,-5.06,0.09,0.06,0
73.530014,8.59,-1.77,-5.14,0.02,0.05,0
73.59001,8.67,-1.61,-5.1,0.11,0.03,0
73.65001,8.71,-1.77,-4.9,-0.01,0.08,0
73.719986,8.47,-1.8,-4.86,0.05,0.07,0
73.780014,8.55,-1.57,-4.94,0.16,0.02,-0.01
