NAME:,walk_125_2_1.csv,,,,,
EXPERIMENT TIME:,12/03/2024 6:03,,,,,
ACTIVITY TYPE:,Walking,,,,,
COUNT OF ACTUAL STEPS: ,100,,,,,
,,,,,,
Time [sec],ACC X,ACC Y,ACC Z,GYRO X,GYRO Y,GYRO Z
0,8.71,-0.59,-0.12,0.21,0.05,-0.13
0.05999756,9.3,-0.82,-1.22,-0.37,-0.24,-0.12
0.120010376,9.34,-1.61,-1.73,-0.34,-0.17,-0.26
0.19000244,9.65,-1.22,-1.33,0.27,-0.12,-0.45
0.25,8.87,0,-1.02,0.36,-0.25,-0.42
0.30999756,8.43,-1.65,-0.67,-1.06,-0.06,-0.03
0.37001038,9.49,-3.65,-2.2,-1.43,-0.31,-0.04
0.43000793,8.67,-3.88,-0.59,0,0.29,-0.05
0.5,9.49,-1.29,-2.04,1.86,0.04,-0.19
0.55999756,9.85,0.75,0.24,1.07,-0.04,0.27
0.6200104,12.71,0.39,-0.94,0.07,-0.28,1.44
0.68000793,13.26,-2.08,2.35,0.57,1.22,1.43
0.7400055,10.08,-4.94,-3.06,-1.53,0.88,0.48
0.80999756,4.67,-3.65,1.26,1.46,1.71,0.48
0.8700104,3.18,-1.45,1.69,3.44,0.22,-0.15
0.93000793,4.79,-0.31,3.69,1.27,-0.13,-0.32
0.9900055,9.38,-1.45,1.8,-2.09,-1.57,0.73
1.050003,18.4,-3.73,-1.73,0.98,0.21,-0.72
1.1200104,12.2,-3.92,-7.02,-0.26,0.6,0.75
1.1800079,3.3,-2.16,4.75,-0.13,0.04,-0.25
1.2400055,14.79,2,-8.43,0.81,-1.81,-1.69
1.300003,5.88,-0.27,0.43,-0.98,0.84,-0.49
1.3600006,6.94,-1.22,-1.49,-2.6,-2.44,-0.6
1.4300079,7.41,-3.14,0.08,-2.82,1.08,0.24
1.4900055,6.63,-2.31,0.39,1.57,0.01,-1.03
1.550003,8.63,1.22,-1.92,1.74,0.18,-1.27
1.6100006,8.67,0.24,-2.31,0.14,-0.07,-0.82
1.6699982,13.89,-5.22,-5.96,-5.11,-0.49,0.42
1.7400055,9.92,-4.24,0.78,0.95,-0.96,1.4
1.800003,20.01,0.67,-6.12,7.86,-1.85,0.31
1.8600006,8.08,3.57,-1.53,3.1,3.72,-1.93
1.9199982,3.53,0.39,0.24,-1.63,1.25,-0.42
1.980011,4.12,-0.98,1.49,-0.8,0,1.42
2.050003,0.67,-1.8,1.73,0.97,2.87,0.52
2.1100006,4.86,-2.47,3.57,-0.98,-1.49,0.4
2.1699982,20.01,-4.9,-9.69,2.2,-3.99,-1.11
2.230011,17.53,-2,-14.79,1.66,1.45,2.58
2.2900085,0.2,4.12,7.53,2.61,3.79,-1.56
2.3600006,7.85,1.45,-3.41,0.22,-0.97,-0.85
2.4199982,16.24,4.94,-1.92,-3.05,-4.64,0.17
2.480011,2.31,-1.96,1.45,-3.95,0.16,0.01
2.5400085,5.33,-1.33,-0.98,-3.07,-0.25,-0.11
2.600006,12.08,-1.29,-2.98,1.83,-0.63,-1.27
2.6699982,8.2,1.41,-2.2,1.57,0.95,-1.33
2.730011,11.1,-1.77,-3.37,-3.42,-1.21,0.53
2.7900085,12.04,-3.22,3.26,-1.39,-0.12,1.43
2.850006,17.18,3.14,-7.18,8.03,-2.88,-0.38
2.9100037,11.69,5.53,-3.8,7.29,4.05,-2.75
2.980011,1.96,0.9,3.02,0.41,2.07,-1.36
3.0400085,4.94,0.82,-3.18,-2.02,-1.6,1.18
3.100006,1.8,-1.02,1.61,-1.6,2.17,1.49
3.1600037,3.06,-1.96,4.35,-1.97,0.43,1.7
3.2200012,12.12,-2.86,-3.73,-2.54,-3.99,0.07
3.2900085,13.85,-1.33,-0.86,1.94,1.73,-0.94
3.350006,17.26,4.2,-3.65,1.86,-1.22,1.24
3.4100037,2.71,3.02,1.73,3.13,3.27,-3.12
3.4700012,5.92,4.71,-1.18,0.34,-3.27,-1.17
3.5299988,9.65,2.51,-5.33,-3.22,-1.74,0.12
3.600006,3.53,-0.39,-0.16,-4.35,-0.7,0.26
3.6600037,10.47,-0.98,-1.49,-4.14,-2.15,0.62
3.7200012,7.88,-3.06,-1.1,-1.99,1.76,-0.37
3.7799988,8.63,-2.04,-0.82,0.7,-0.44,-0.24
3.8400116,12.83,-0.63,-7.53,0.17,0.31,-0.93
3.9100037,9.02,1.92,0.24,2.71,-0.43,0.27
3.9700012,20.01,7.65,-12,7.22,-1.2,0.13
4.029999,8,6.24,2.2,1.79,5.1,-2.17
4.0900116,6.9,1.65,-1.18,-2.65,-1.3,0.04
4.150009,7.73,-0.9,-0.63,-2.47,0.79,2
4.220001,0.35,-2.51,1.65,-1.51,3.26,1.2
4.279999,2.79,-2.67,2.75,-3.37,0.52,0.57
4.3400116,12.51,-7.41,3.88,-1.47,-4.46,0.71
4.400009,15.89,-0.82,9.14,4.96,1.96,-1.02
4.4600067,9.3,4.86,0.31,2.48,0.52,0.27
4.529999,4.16,1.18,0.31,2.1,0.9,-2.5
4.5900116,10.9,5.14,-1.1,-1.43,-3.53,-0.16
4.650009,7.34,0.67,-1.06,-4.49,-1.19,0.08
4.7100067,4.98,-1.45,-0.63,-4.42,-0.63,0.22
4.7700043,10.98,-3.06,-1.73,-1.04,0.15,0.07
4.8400116,5.88,-1.1,0.16,0.62,0.96,-0.46
4.900009,9.73,-2.31,-2.47,0.36,-0.82,-0.39
4.9600067,11.69,0.04,-2.59,-1.03,0.87,-0.53
5.0200043,10.47,1.14,-0.27,3.97,-1.63,0.61
5.080002,20.01,5.96,-6.94,5.48,1.48,0.13
5.150009,4.98,1.1,1.06,0.7,2.1,-0.8
5.2100067,5.88,1.06,-1.37,-3,-1.19,0.68
5.2700043,4.04,-1.69,1.88,-0.94,1.8,1.28
5.330002,2.08,-2.39,1.53,-0.12,1.87,0.55
5.3899994,5.45,-2.39,-0.55,-0.6,-3.04,0.78
5.4600067,20.01,-0.75,-7.65,2.27,0.22,-1.58
5.5200043,10.36,-1.53,-6.59,-0.4,0.99,2.13
5.580002,6.16,3.77,2.12,3.77,1.39,-2.5
5.6399994,7.73,3.37,-0.71,0.4,-1.1,-1.52
5.700012,9.65,2.55,-2.16,-2.68,-1.75,0.21
5.7700043,3.37,-1.33,-0.39,-3.41,-0.56,-0.33
5.830002,10.4,-2.35,-1.65,-2.67,-1.09,0.49
5.8899994,7.61,-1.06,0.24,-0.24,1.51,-1.15
5.950012,8.87,-0.39,-1.84,0.23,-0.28,-0.14
6.01001,12.4,-2.2,-4.63,-2.34,-0.09,-0.2
6.080002,9.57,-0.86,1.53,2.07,-0.95,0.95
6.1399994,20.01,7.88,-13.22,8.6,-0.78,0.03
6.200012,5.77,5.06,0.9,3.67,5.25,-3.57
6.26001,4.12,1.8,1.14,-1.55,-0.36,-0.08
6.3200073,6.32,1.29,-1.22,-2.66,-0.48,1.6
6.3899994,1.8,-1.77,1.73,-2.07,2.04,1.29
6.450012,3.73,-1.77,2.47,-2.59,-0.73,1.36
6.51001,20.01,-9.1,-0.08,-0.34,-4.18,0.91
6.5700073,4.35,-3.22,5.06,0.12,3.97,1.64
6.630005,17.97,3.8,-3.41,1.26,-3.83,0.79
6.700012,3.88,1.84,-2.43,4.19,4.44,-3.32
6.76001,4.55,4.24,-1.61,-0.14,-2.23,-1.86
6.8200073,11.53,3.18,-8,-1.82,-2.81,0.25
6.880005,4.75,0.35,2.08,-5.51,-0.08,-0.4
6.9400024,11.69,-1.41,-0.16,-4.69,-1.53,1.2
7.01001,8.16,-2.63,0.78,-1.45,1.48,-0.03
7.0700073,9.1,-4.24,-2.75,1.04,-0.74,-0.66
7.130005,12.12,-0.35,5.1,1.25,0.36,-0.11
7.1900024,11.65,2.31,-4.16,5.35,-1.54,0.48
7.25,19.93,8.16,-9.92,7.26,2.75,-1.24
7.3200073,4,2.86,2.16,0.79,2.95,-1.62
7.380005,6.51,1.73,-2.47,-3.69,-2.18,1.49
7.4400024,4.67,-1.57,1.37,-2.35,1.71,2.07
7.5,1.84,-1.96,2.51,-1.36,2.58,1.32
7.5599976,5.65,-2.59,-0.08,-2.04,-2.28,0.83
7.630005,20.01,-4.2,-15.22,2.81,-2.61,-2.17
7.6900024,13.53,-1.92,-3.77,1.7,0.56,2.45
7.75,3.69,3.53,2.47,3.89,3.14,-3.42
7.8099976,5.41,3.77,0.86,1.83,0.15,-2.41
7.8700104,14,4.59,-5.26,-1.73,-3.27,0.87
7.9400024,2.9,0.16,2,-4.1,-0.38,-0.08
8,7.53,-1.29,-2.24,-3.86,-2.14,0.67
8.059998,9.92,-1.96,-1.84,-1.38,1.01,-0.69
8.12001,6.86,-0.78,-0.75,0.19,0.31,-0.17
8.180008,14,-1.14,-1.14,-0.2,-0.95,-0.68
8.25,9.34,0.67,-2.47,2.14,-0.33,0.54
8.309998,19.22,4.67,-8.24,5.66,-1.13,0.69
8.37001,8.36,5.26,0.75,1.78,3.61,-1.02
8.430008,6.63,1.02,0.08,-2.34,-0.66,0.68
8.4900055,7.3,-0.9,-0.43,-3.1,0,2.22
8.559998,1.69,-2.59,1.37,0.15,3.09,0.96
8.62001,2.28,-1.61,3.84,-0.57,0.12,0.41
8.680008,12.47,-3.26,2.43,0.1,-4.89,-0.37
8.7400055,7.14,-2.35,4.51,0.73,4.03,0.68
8.800003,12.83,0.59,-8.08,-0.3,-1.37,1.94
8.87001,6.59,3.77,-2.39,3.2,2.11,-2.69
8.930008,4.08,1.53,0.71,-0.67,-0.57,-1.37
8.9900055,13.53,2.67,-4.79,-2.56,-3.26,0.16
9.050003,3.57,-2.04,1.22,-3.86,0.78,-0.04
9.110001,9.77,-2.94,-0.67,-1.92,-0.99,0.06
9.180008,8.47,-1.33,-0.47,0.55,0.87,-0.92
9.2400055,7.69,-1.26,-1.61,0.73,0.06,-0.18
9.300003,13.14,-0.24,-4.47,-1.06,0.02,-0.21
9.360001,12.28,1.1,-2.31,4.03,-1.38,0.73
9.419998,19.81,5.92,-8.24,5.46,1.97,-0.46
9.4900055,5.61,1.96,1.49,1.21,2.89,-1.53
9.550003,6.28,1.18,-1.33,-3.49,-0.81,0.49
9.610001,3.88,-1.77,1.92,-1.84,1.89,1.76
9.669998,1.41,-2.94,1.8,-0.92,1.9,0.83
9.730011,6.98,-3.53,-0.2,-1.61,-3.2,0.5
9.800003,20.01,-4.12,-11.61,3,-2.06,-1.67
9.860001,13.14,-0.9,-3.57,-0.31,1.96,2.07
9.919998,6.59,4.35,2.31,4.15,2.53,-2.95
9.980011,3.61,0.35,1.77,1.01,0.04,-1.85
10.040009,16.16,5.88,-2.04,-1.86,-4.92,0.41
10.110001,3.02,-0.04,2.2,-4.17,0.42,-0.29
10.169998,6.04,-1.37,-2.82,-4.27,-0.55,0.17
10.230011,12.47,-2.43,-5.26,-0.77,-0.28,-0.57
10.290009,6.79,-0.24,-0.12,0.77,1.15,-0.42
10.350006,12.2,-0.35,-2.94,0.17,-1.04,-0.94
10.419998,8.98,-0.51,4.79,-0.72,0.01,0.74
10.480011,16.91,1.88,-7.06,4.04,-2.49,0.55
10.540009,14.55,5.41,-3.06,5.46,3.07,-0.8
10.600006,5.41,1.69,1.33,0.53,0.62,-0.1
10.660004,7.88,-0.08,-3.92,-2.43,-0.13,1.4
10.730011,2.98,-1.45,2.24,-0.15,2.97,1.02
10.790009,1.18,-2.04,1.92,0.74,2.3,0.72
10.850006,5.02,-2.31,2.9,-0.24,-2.46,0.36
10.910004,20.01,-2.2,-16.36,2.09,-2.24,-1.38
10.970001,13.38,0.2,2.79,-1.75,1.3,2.67
11.040009,7.34,4.71,2.55,5.07,2.35,-2.5
11.100006,5.61,3.53,0.63,2.03,0.33,-2.51
11.160004,8.94,3.49,-1.77,-1.26,-2.53,0.02
11.220001,4.43,0.78,-0.43,-3.3,-1.05,-0.14
11.279999,7.37,0.2,-1.92,-4.28,-1.8,0.35
11.350006,9.57,-2.16,-1.53,-2.6,0.74,-0.48
11.410004,7.53,-1.84,-1.73,-1.13,0.3,0.01
11.470001,15.1,-3.18,-4.98,-0.42,-1.35,-0.63
11.529999,7.92,-0.63,6.39,0.46,0.86,0.12
11.590012,11.92,2.31,-7.57,5.98,-2.34,-0.05
11.660004,14.67,7.57,-6.86,6.95,4.06,-1.93
11.720001,2.47,1.18,1.65,0.89,2.34,-1.16
11.779999,6.16,0.67,-1.8,-2.52,-1.46,0.98
11.840012,5.02,0.55,1.06,-2.61,1.29,1.52
11.900009,1.77,-2.55,2.59,-2.87,1.67,1.38
11.970001,7.92,-3.02,2.12,-2.82,-2.29,1.27
12.029999,19.22,-3.02,-4.94,4.59,-0.33,-1.93
12.090012,13.73,-0.82,-13.89,1.61,-0.33,2.2
12.150009,5.61,4.47,1.06,3.31,2.58,-2.27
12.210007,4.71,2.86,1.29,0.58,-0.98,-2.04
12.279999,11.69,4.82,-3.45,-1.69,-3,0.21
12.340012,3.14,-0.43,0.43,-4.08,-0.35,0
12.400009,8.12,-1.49,-2.16,-4.49,-1.57,0.56
12.460007,9.73,-2.08,-2.9,-1.5,0.9,-0.59
12.520004,7.45,-0.63,-0.2,0.56,0.38,-0.41
12.590012,12.51,-0.98,-3.65,-0.55,-0.84,-0.63
12.650009,9.85,-0.55,8.04,-0.6,0.76,0.13
12.710007,11.06,1.1,-5.02,4.51,-2.24,0.13
12.770004,20.01,6.16,-9.06,7.18,1.31,0.65
12.830002,4.55,2.63,1.29,0.58,2.98,-1.66
12.900009,5.3,1.29,-2.47,-3.24,-1.29,0.94
12.960007,4,-2.31,1.8,-0.56,2.3,1.44
13.020004,1.37,-1.88,1.77,0.5,2.28,0.72
13.080002,5.41,-1.69,2.79,-0.04,-2.41,0.89
13.139999,20.01,-0.47,-13.45,3.17,-2.52,-1.51
13.210007,6.32,-1.96,14.16,-4.35,4.16,2.01
13.270004,15.85,1.29,5.1,3.43,-2.51,-0.82
13.330002,5.06,0.94,1.02,3.77,2.2,-2.36
13.389999,6.28,4.59,-0.51,0.45,-2.07,-1.81
13.450012,8.16,2.31,-3.61,-2.32,-1.72,0.06
13.520004,4.08,-0.31,-0.2,-4.43,-0.8,0.05
13.580002,11.81,-0.82,-1.22,-3.74,-1.54,0.73
13.639999,7.06,-2.39,1.53,-1.64,1.38,-0.22
13.700012,8.79,-1.61,-1.29,0.84,-0.51,-0.52
13.76001,13.02,-0.43,-7.37,-0.08,0.04,-0.72
13.830002,9.06,0.94,-0.59,1.97,-0.83,0.62
13.889999,19.42,5.45,-7.73,5.12,-0.81,0.48
13.950012,8.59,2.86,-0.08,2.35,3.41,-1.07
14.01001,6.04,0.78,-0.31,-2.85,-0.62,0.58
14.070007,7.22,-2.12,-1.61,-2.17,0.4,2.04
14.139999,1.49,-2.16,1.14,1.1,3.08,1.08
14.200012,2.47,-1.33,3.33,-0.11,0.1,0.33
14.26001,20.01,-2.28,5.88,0.5,-4.68,-0.39
14.320007,10.55,-1.65,7.57,-0.17,3.44,0.92
14.380005,16.95,0.35,-1.26,-0.74,-1.34,1.2
14.450012,4.31,2,1.06,3.71,2.32,-2.09
14.51001,5.77,3.02,-0.47,0.66,-1.66,-1.62
14.570007,10.59,2.16,-4.04,-2.57,-1.86,0.24
14.630005,3.33,-1.26,-0.04,-4.17,-0.61,0.07
14.690002,10.36,-2.67,-2.63,-3.82,-1.49,0.87
14.76001,8.28,-2.04,-0.78,-0.39,1.14,-0.8
14.820007,6.98,0.16,-0.63,1.1,0.09,-0.49
14.880005,13.42,-0.55,-2.47,-0.79,-0.41,-0.81
14.940002,11.22,-1.22,3.37,0.04,-0.55,0.39
15,11.73,1.18,-4.31,3.79,-1.45,0.64
15.070007,19.38,4.75,-5.96,4.93,1.61,1.03
15.130005,4.47,1.33,0.71,-0.03,2.11,-0.67
15.190002,4.12,0.39,-1.49,-2.75,-0.1,1.1
15.25,2.98,-2.31,2.08,0.23,1.88,1.21
15.309998,3.84,-2.82,0.82,-0.49,0.28,0.4
15.380005,11.96,-2.71,1.65,-1.28,-3.13,0.01
15.440002,11.3,-1.18,1.88,2.63,1.94,-0.78
15.5,20.01,6.04,-3.84,1.2,-1.87,0.84
15.559998,1.84,1.26,2,4.13,3.35,-3.04
15.62001,4.04,3.96,0.31,0.68,-2.83,-1.25
15.690002,10.47,3.45,-6.98,-1.43,-2.7,0.4
15.75,2.79,0.08,1.33,-3.54,-0.39,-0.43
15.809998,9.61,0.08,-0.67,-4,-2.27,0.65
15.87001,9.85,-0.55,-0.67,-1.37,1.11,-0.8
15.930008,8.47,-2.75,-2,-0.28,-0.45,-0.1
16,16.16,-2.31,0.98,-2.63,0.13,0.73
16.059998,9.34,1.14,-0.51,4.01,-0.85,0.37
16.12001,20.01,10,-11.92,8.82,0.84,-0.21
16.180008,3.65,4.71,2.43,1.36,4.72,-2.89
16.240005,4,0.86,-0.94,-3.14,-2.04,0.73
16.309998,6.9,0.94,1.77,-2.22,0.16,2.09
16.37001,3.22,-3.69,0.39,-1.52,2.07,1.7
16.430008,6.63,-3.06,1.49,-1.91,-1.31,1.47
16.490005,20.01,-4.71,-10.67,3.57,-2.09,-1.86
16.550003,13.38,4.12,-5.92,1.28,0.39,1.85
16.62001,4.79,2.67,1.33,2.04,2.19,-2.03
16.680008,6.04,2.39,-0.59,-0.5,-1.49,-1.35
16.740005,10.32,2,-2.47,-2.38,-1.55,-0.32
16.800003,3.14,-1.37,-0.75,-2.09,-0.26,-0.41
16.86,10.12,-1.61,-0.59,-2.21,-1.13,0.38
16.930008,6.39,-1.02,1.26,0.02,1.59,-1.02
16.990005,7.06,0.47,-0.39,0.24,0.21,-0.22
17.050003,14.55,-1.29,-5.1,-1.28,-1.07,-0.38
17.11,9.02,-2.67,2.24,-1.77,-0.19,1.2
17.169998,18.24,1.1,-4.28,5.45,-2.79,0.06
17.240005,10.98,4.67,-1.49,4.74,3.68,-1.46
17.300003,3.77,0.75,0.04,0.04,0.84,-0.38
17.36,6.24,0.75,-0.71,-1.38,-0.2,0.76
17.419998,4.86,-0.2,2,-0.03,1.9,0.57
17.480011,3.61,-1.49,3.18,-0.81,0.32,0.23
17.550003,9.92,-0.98,0.2,-1.28,-2.22,0.32
17.61,17.14,-3.53,-5.69,-0.12,0.54,0.03
17.669998,15.97,-2.47,-4.82,-2.78,0.39,2.17
17.730011,8.47,5.22,-0.12,4.91,2.64,-2.96
17.790009,2.59,1.73,2.28,2.5,1.18,-1.99
17.86,9.73,6.79,-0.9,-0.27,-3.37,-0.2
17.919998,4.63,0.47,0.39,-4.63,-1,0.09
17.980011,7.57,-0.16,-2.12,-5.25,-2,0.39
18.040009,11.34,-3.26,-2.67,-3.07,0.11,0.39
18.100006,6.32,-1.88,-0.24,-0.15,0.91,0.05
18.169998,11.1,-1.65,-1.8,1.22,-1.29,-0.84
18.230011,10.94,0.35,5.49,-0.01,0.86,-0.47
18.290009,12.12,0.78,-4.51,3,-2.08,0.44
18.350006,18.4,7.41,-6.83,6.1,1.98,0.16
18.410004,5.26,3.92,0.51,1.5,2.87,-1.86
18.480011,6.67,2.51,-0.43,-2.57,-0.86,0.7
18.540009,3.65,-0.51,2.16,-1.96,1.83,1.38
18.600006,2.67,-2.47,1.49,-2.31,1.34,0.81
18.660004,7.77,-3.61,1.53,-3.03,-2.3,0.75
18.720001,20.01,-4.47,-7.73,3.2,-1.07,-1.06
18.790009,7.73,2.59,10.47,-0.69,2.43,1.26
18.850006,17.65,2.04,-1.65,5.07,-0.4,-2.15
18.910004,2.12,0.59,3.26,2.33,2.46,-2.52
18.970001,6.63,4.47,0.86,0.13,-3.24,-0.71
19.029999,8.39,1.69,-3.96,-3.25,-1.53,0.18
19.100006,5.02,-0.63,-1.45,-4.89,-0.75,0.35
19.160004,12.59,-3.02,-2.35,-2.94,-1.18,0.78
19.220001,6.12,-1.8,1.18,-0.36,1.11,-0.44
19.279999,9.38,0.59,-1.84,0.95,-0.79,-0.76
19.340012,11.73,-1.18,-3.14,-0.92,0.37,-0.65
19.410004,8.43,-1.61,-2.35,-0.07,-1.02,0.11
19.470001,15.42,3.92,-6.08,5.5,-1.09,-0.25
19.529999,15.22,8.43,-2.75,6.59,3.92,-1.85
19.590012,5.02,1.73,-0.86,-1.34,1.03,-0.14
19.65001,9.81,2.55,-2.24,-3.25,-1.61,1.32
19.720001,3.53,-0.98,1.02,-1.44,2.69,1.17
19.779999,1.26,-2.16,1.84,-1.77,2,0.85
19.840012,4.82,-2.71,3.14,-2.05,-1.84,0.61
19.90001,19.69,-4.16,0.82,2.45,-1.58,-0.11
19.960007,9.45,-0.27,12.83,2.84,2.01,-0.13
20.029999,19.1,4.43,-1.45,0.88,-2.1,1.32
20.090012,2.9,0.98,2.79,2.05,3.12,-1.34
20.15001,5.1,2.08,-0.24,-0.03,-2.7,-0.38
20.210007,12.08,2.12,-4.2,-2.67,-1.8,0.05
20.270004,3.49,-2.2,-0.24,-4.62,-0.19,-0.04
20.340012,9.38,-2.71,0.12,-3.44,-0.59,0.85
20.40001,9.22,-0.98,-2.59,1.59,0.41,-1.21
20.460007,6.28,0.51,-0.16,-0.65,0.65,-0.24
20.520004,9.1,-0.9,-3.18,-2.18,-0.81,-0.46
20.580002,9.89,-3.8,-3.41,-4.1,0.59,0.2
20.65001,10.36,-2.59,3.53,0.75,-0.97,0.41
20.710007,18.32,5.1,-5.14,7.36,-2.05,-0.52
20.770004,12.55,8.79,-4.59,4.83,3.17,-2.75
20.830002,4.31,2.75,0.24,0.23,0.25,-0.46
20.89,7.96,1.69,-1.96,-2.83,-0.17,1.16
20.960007,3.92,-0.59,2,-2.75,1.37,1.03
21.020004,4.12,-2.24,1.57,-3.06,-0.09,0.85
21.080002,7.73,-3.8,-0.78,-3.89,-2.32,2.03
21.14,12.67,-6.43,-0.35,0.82,-0.04,0.18
21.200012,8.47,-2.31,1.29,3.87,0.21,-0.92
21.270004,17.53,4.28,7.96,0.72,-0.11,-0.22
21.330002,10.2,4.08,-3.49,4.82,1.94,-1.43
21.39,0.94,1.92,1.61,2.95,4.82,-3.21
21.450012,5.14,4.9,-0.08,-0.56,-5.34,0.93
21.51001,12.71,2.16,-6.04,-4.8,-0.44,0.53
21.580002,5.02,-0.63,-1.57,-3.97,-0.9,0.17
21.64,13.02,0.08,-2.24,-3.33,-2.19,0.4
21.700012,7.45,1.29,-0.86,0.57,0.66,-0.08
21.76001,9.18,2.63,-1.33,0.42,-0.08,-0.2
21.820007,9.61,2.35,-1.84,-2.41,0.23,0.41
21.89,8.79,0.16,0,-2.91,-0.29,0.4
21.950012,10.55,0.04,-1.06,-1.49,-0.28,0.04
22.01001,8.51,1.57,-0.27,0.06,0.62,-0.25
22.070007,8.39,1.96,-0.39,-1.04,-0.14,-0.19
22.130005,9.26,-0.24,-0.12,-3,-0.41,0.34
22.200012,9.65,-1.88,0.16,-1.99,-0.29,0.35
22.26001,10.28,-2.31,0.2,-0.45,-0.12,0.16
22.320007,9.14,-0.67,0.12,1.19,0.19,-0.17
22.380005,8.87,0.2,-0.35,0.95,-0.13,-0.18
22.440002,9.96,0.04,-1.45,1.06,0.13,-0.16
22.51001,9.41,1.69,-1.45,2.07,0.55,-0.18
22.570007,8.71,1.8,-1.22,1.37,0.17,-0.1
22.630005,10.2,0.12,-1.14,-0.73,-0.3,0.43
22.690002,10.43,-0.24,-0.24,0.6,0.43,0.25
22.75,9.57,1.57,-1.18,1.88,0.72,-0.04
22.820007,8.12,1.84,0.51,1.17,0.69,0.07
22.880005,9.38,1.69,-0.59,1.06,-0.01,0
22.940002,9.57,2.28,-0.43,1.25,0.52,-0.18
23,9.61,0.75,0.86,-0.33,0.77,0.28
23.059998,9.49,-1.26,1.45,-1.47,0.26,0.58
23.130005,9.73,-2.59,1.45,-1.3,0.16,0.67
23.190002,9.3,-3.49,1.02,-0.45,0.25,0.56
23.25,9.49,-4.16,1.1,0.03,0.04,0.56
23.309998,9.02,-2.16,1.29,2.03,0.31,0
23.37001,8.28,-1.26,0.82,1.83,0.14,0.15
23.440002,9.89,-2.08,1.57,0.38,-0.14,0.22
23.5,9.22,-2.63,1.8,1.35,0.22,0.15
23.559998,9.1,-1.8,1.73,1.65,0.06,0.03
23.62001,9.26,-1.45,2.24,1.53,0.25,0.07
23.680008,8.75,-1.33,2.55,1.06,0.2,0.02
23.75,9.1,-1.41,3.18,0.8,0.19,-0.12
23.809998,7.96,-1.26,3.06,0.68,0.33,-0.28
23.87001,8,-1.02,3.45,0.69,0.22,-0.21
23.930008,6.98,-1.29,4.04,0.12,0.14,-0.09
23.990005,9.18,-1.77,4.47,0.01,-0.33,-0.26
24.059998,9.69,-1.73,5.45,0.2,-0.03,-0.2
24.12001,20.01,-3.06,-1.22,1.22,-0.82,0.4
24.180008,2.94,0.47,7.45,0.32,1.81,0.36
24.240005,15.18,4.08,-3.26,1.52,-4,-0.34
24.300003,8.87,1.02,-0.47,-2.91,0.25,-0.16
24.37001,5.06,-1.73,-0.2,-4.21,-1.21,-0.29
24.430008,6.16,-1.77,0.2,-1.81,-1.09,-0.54
24.490005,7.69,0.67,-0.31,1.65,-0.51,-0.49
24.550003,8.79,1.26,-3.1,0.91,0.64,-0.4
24.61,6.51,-0.43,-1.1,-3.24,0.1,0.14
24.680008,12.79,-4.63,-3.61,-4.34,-1.31,0.73
24.740005,12.87,-3.41,5.69,0.6,1.23,-0.21
24.800003,10.47,0.16,-2.82,4.87,-2.59,-0.11
24.86,20.01,9.3,-6.98,6.46,1.08,-0.51
24.919998,4.24,0.55,-0.86,1.24,3.47,-1.97
24.990005,3.8,1.33,-0.55,-2.8,-0.45,-0.52
25.050003,5.49,-0.31,0.67,-0.74,0.71,1.07
25.11,3.49,-1.49,2.55,-1.22,1.48,1.08
25.169998,10.55,-1.88,3.06,-2.3,-2.1,1.22
25.230011,17.81,-6.35,-2.24,-0.26,-0.3,0.68
25.300003,14.28,3.06,-1.29,0.09,0.73,1.4
25.36,9.26,7.02,2.16,5.07,2.89,-2.93
25.419998,3.65,2.82,2.16,2.3,0.77,-2.68
25.480011,8.63,5.65,-0.75,-1.88,-3.85,0.49
25.540009,6,1.33,-1.57,-3.7,-2.13,0.26
25.61,5.84,0.75,-1.02,-4.1,-1.16,0.19
25.669998,12.71,-0.04,-2.12,-2.1,-0.71,0.06
25.730011,6.94,-0.55,0.2,-0.41,0.97,-0.24
25.790009,13.85,-0.78,-3.65,-0.43,-1.21,-0.41
25.850006,12.12,-1.29,1.18,-0.38,-0.32,0.3
25.919998,13.38,5.26,-9.96,5.91,-1.84,-0.38
25.980011,12.32,8.04,-3.88,5.51,4.39,-2.08
26.040009,4.98,2.67,-0.94,-0.42,1.17,-0.64
26.100006,7.3,2.31,-0.94,-2.3,-0.48,0.64
26.160004,2.79,0,1.41,-1.94,1.63,0.56
26.230011,1.02,-2.12,2.47,-2.57,1.46,0.7
26.290009,5.96,-1.22,3.1,-4.07,-2.64,1.53
26.350006,20.01,-4.55,-11.69,2.76,-1.66,-0.84
26.410004,12.43,-4,-16.16,2.68,1.21,1.61
26.470001,1.73,4.12,7.61,0.84,1.97,-0.76
26.540009,8.98,2.59,-3.88,0.43,-2.86,-0.98
26.600006,8.9,0.86,-1.22,-3.85,-0.74,0.07
26.660004,4.98,-1.26,-0.98,-2.78,-1.32,-0.23
26.720001,6.35,-0.51,-0.31,-1.42,-0.27,-0.51
26.779999,10.75,-0.08,-1.92,0.71,0.12,-1.15
26.850006,7.49,0.35,-0.12,-0.99,0.56,-0.46
26.910004,12.55,-2.82,-2.67,-1.9,-0.99,0.4
26.970001,12,-2.12,1.14,-0.59,-0.05,0.31
27.029999,11.61,1.84,-5.88,5.41,-2.44,-0.53
27.090012,17.81,6.55,-8.71,7.49,3.99,-1.5
27.160004,3.61,3.41,2.86,1.09,3.81,-2.53
27.220001,7.26,2.47,-1.92,-1.29,-1.41,0.82
27.279999,2.43,0.75,2,-1.25,2.32,-0.12
27.340012,1.14,-0.71,2.67,-1.76,1.59,0.38
27.40001,5.49,-0.04,3.73,-2.35,-3.63,1.24
27.470001,20.01,-0.47,1.8,-1.58,-1.81,0.87
27.529999,14,0.31,15.81,-0.97,2.83,1.04
27.590012,7.69,5.61,0.71,3.85,1.05,-1.28
27.65001,3.3,0.24,0.82,3.49,2.41,-1.4
27.710007,9.3,6.83,0.67,1.19,-3.36,-0.67
27.779999,7.41,2.9,-2.2,-3.48,-1.26,-0.24
27.840012,4.43,-1.14,-1.57,-5.11,-2.09,0.18
27.90001,13.34,-2.86,-5.18,-5.12,-2.32,1.19
27.960007,6.98,-3.18,0.75,-2.92,1.6,0.28
28.020004,6.35,-2.98,0.12,-0.32,0.44,0.54
28.090012,13.96,-1.22,-5.77,0.12,-0.65,-1.14
28.15001,9.41,1.29,-0.86,2.63,-0.61,0.11
28.210007,19.81,5.61,-10.12,6.14,-1.72,0.52
28.270004,8.51,4.43,1.49,2.16,3.87,-1.57
28.330002,5.69,0.43,-1.61,-3.02,-0.75,-0.01
28.40001,7.18,0.16,0.94,-2.81,0.58,2.07
28.460007,2.24,-2.24,1.22,0.35,2.51,1.22
28.520004,3.1,-1.65,3.45,-0.77,-0.2,0.06
28.580002,13.61,-1.22,2.82,-0.14,-3.33,-0.63
28.64,20.01,5.33,9.49,1.52,1.93,-0.65
28.710007,6.47,3.14,-1.45,1.25,2.93,-0.18
28.770004,4.82,0.43,1.84,2.36,-0.72,-0.57
28.950012,6.63,-0.63,-1.65,-3.33,-2.24,-0.49
29.020004,11.3,-2.55,-4.04,-3.14,-0.11,0.4
29.080002,7.1,-1.96,-0.39,-1.42,0.81,-0.93
29.14,7.1,-2.08,-1.29,-1.18,0.35,0.11
29.200012,11.14,-2.16,-2.51,-1.11,-0.31,-0.51
29.26001,10.71,0.75,-1.18,3.42,-0.95,0.48
29.330002,20.01,10.67,-14.44,8.22,-0.26,-0.2
29.39,4.98,6.2,1.77,2.63,5.52,-3.51
29.450012,4.04,2.04,0.82,-2.63,-1.29,0.14
29.51001,8.12,1.49,-1.33,-3.68,-0.75,1.5
29.570007,2.47,-2.24,1.22,-3.25,1.48,1.25
29.76001,13.22,-1.57,4.79,4.02,1.03,-0.18
29.820007,20.01,-2.94,-15.81,1.97,-2.31,2.32
29.880005,-2.63,3.92,4.51,4.09,6.55,-2.71
29.950012,4.55,3.45,-4.2,1.38,-2.73,-0.18
30.01001,12,2.9,-10.47,-3.56,-3.53,0.83
30.070007,5.26,0.39,1.1,-5.58,-1.42,0.02
30.130005,7.65,-1.77,-1.26,-5.35,-1.45,0.05
30.190002,10.24,-2.98,-3.26,-1.78,0.72,0.05
30.26001,7.69,-0.2,0.9,-0.19,0.56,-0.54
30.320007,9.22,-1.61,-2.82,-0.09,-0.22,-0.16
30.380005,12.16,-2.67,0.35,-2.59,0.29,0.26
30.440002,9.81,-1.53,0.71,1.66,-1.16,1.06
30.5,20.01,7.1,-10.87,9.4,-1.85,0.03
30.570007,5.49,5.65,3.22,2.78,4.72,-3.2
30.630005,4.43,0.31,-1.49,-2.9,-1.18,0.39
30.690002,7.1,0.43,0.82,-3.05,-0.36,1.73
30.75,3.65,-3.1,0.78,-0.98,1.97,1.45
30.809998,3.57,-1.73,3.8,-1.31,0.24,0.79
31,19.97,3.14,-15.26,0.62,-3.84,2.03
31.059998,1.57,1.57,3.61,1.89,4.16,-1.73
31.12001,6.39,2.75,-2.86,-0.83,-1.58,-1.15
31.190002,15.18,3.49,-7.22,-2.01,-3.44,0.32
31.25,2.24,-1.02,1.37,-3.42,0.58,-0.46
31.309998,8.43,-1.92,-1.37,-2.69,-1.35,0.15
31.37001,9.26,-1.37,-1.88,-0.53,1.42,-0.78
31.430008,6.35,-0.86,-0.78,-0.86,0.67,-0.34
31.5,13.18,-2.79,-2.71,-1.34,-0.86,-0.94
31.559998,8.51,-0.71,3.8,0.92,0.08,0.19
31.62001,16.2,3.33,-6.59,5.21,-2.34,0.22
31.680008,15.81,5.84,-5.22,5.31,2.9,-0.97
31.740005,5.88,1.22,-0.27,0.76,1.67,-0.41
31.809998,6.39,1.26,-1.69,-2.87,-0.39,1.28
31.87001,5.02,-1.37,1.26,-0.58,1.68,1
31.930008,2.59,-2.04,1.06,-0.24,1.44,0.23
31.990005,6.51,-3.1,0.78,-0.93,-1.86,0.31
32.050003,20.01,-3.41,-5.53,2.02,-1.85,-0.96
32.12001,19.42,3.84,-3.53,-0.56,2.25,1.94
32.180008,4.67,3.73,4.71,3.5,4.21,-1.89
32.240005,9.18,3.49,-3.18,1.95,0.27,-1.49
32.300003,12.12,4.82,-6.39,-2.05,-3.04,-0.12
32.36,3.49,0.98,1.8,-3.36,-1.02,-0.16
32.430008,6.16,-0.12,-1.18,-3.38,-1.6,-0.22
32.490005,10.79,-1.73,-3.41,-2.64,-0.16,-0.01
32.550003,7.45,-1.06,0.94,-0.8,0.84,-0.72
32.61,8.28,-2.51,-2.79,-0.39,-0.5,-0.32
32.67,13.57,-2.86,0,-1.81,-0.05,0.58
32.740005,10.98,0.94,-1.45,3.61,-1.11,0.4
32.800003,20.01,8.36,-13.61,9.61,0.76,-0.76
32.86,3.41,4.24,2.63,2.38,5.04,-2.8
32.92,4.63,1.26,-1.88,-3.71,-3.16,1.27
32.98001,8.87,0.43,0.35,-3.12,0.14,2.47
33.050003,1.69,-2.55,0.59,-1.28,3.02,2
33.11,3.53,-2.43,3.3,-2.19,0.52,0.97
33.17,16.24,-7.18,4.71,0,-4.6,-1.16
33.23001,10.63,1.26,9.57,2.53,2.36,-0.12
33.29001,17.26,2.51,-4.9,5.48,0.5,-0.59
33.36,0.2,0.63,2.94,4.13,4.81,-3.14
33.42,3.88,4,-2.2,1.03,-3.15,-1.04
33.48001,11.41,3.77,-11.49,-2.25,-2.38,0.1
33.54001,3.14,0.12,2.39,-4.73,-1.18,-0.34
33.600006,12.67,-0.04,-1.14,-5.35,-2.6,0.83
33.67,7.53,-2.9,0.98,-2.47,1.92,0.4
33.73001,6.75,-1.8,-0.55,-0.25,0.06,0.27
33.79001,14.83,-1.84,-4.47,0.65,-1.09,-1.17
33.850006,6.59,-0.78,-2.55,1.29,0.05,-0.04
33.910004,20.01,8.87,-7.85,6.37,-1.61,0.37
33.98001,9.61,6.98,-2.82,4.66,4.12,-3.85
34.04001,6.28,2.59,0.35,-0.65,-0.16,0.59
34.100006,10.67,2.43,-3.73,-2.28,-0.07,1.65
34.160004,2.31,-0.59,0.86,0.4,2.84,0.59
34.22,1.88,-1.06,2.12,0.19,1.41,0.34
34.29001,6.35,0,4.63,-0.05,-2.82,0.87
34.350006,20.01,0.43,-3.69,-0.37,-2.45,-0.23
34.410004,10.98,2.75,11.53,-4.08,2.36,1.43
34.47,13.02,2.43,-1.84,4.82,0.75,-1.36
34.53,-1.18,-0.04,3.3,3.77,3.31,-1.46
34.600006,12.43,7.37,0.35,2.16,-4.73,0.44
34.660004,4.43,1.73,-0.08,-3.97,0.4,-0.33
34.72,5.22,-0.04,-1.69,-4.44,-1.66,-0.45
34.78,15.14,-2.04,-5.41,-4.3,-2.19,0.88
34.84001,5.37,-2.94,0.94,-2.78,1.81,0.31
34.910004,7.37,-3.96,-1.41,-0.31,-0.71,0.16
34.97,13.49,-1.96,-0.2,0.11,0.15,-0.28
35.03,12.24,1.41,-1.14,3.77,-1.29,0.35
35.09001,20.01,9.49,-12.98,8.01,0.18,-0.61
35.15001,5.77,7.81,4.94,2.56,4.69,-2.6
35.22,5.02,1.41,0.51,-3.3,-1.86,0.65
35.28,7.37,0.75,-0.51,-4.07,-0.14,2.02
35.34001,3.18,-3.1,0.47,-2.26,1.85,1.81
35.40001,3.88,-2.94,3.26,-2.44,0.03,0.99
35.460007,11.1,-5.73,1.06,-0.57,-2.97,-0.4
35.53,15.18,-2.47,-2.86,3.62,1.11,-0.74
35.59001,20.01,4.51,-8.59,0.58,-1.96,1.26
35.65001,2.59,1.88,0.86,3.18,3.81,-1.38
35.710007,6.12,3.77,-0.47,1.52,-0.95,-1.23
35.770004,11.77,4.43,-5.1,-1.75,-1.97,-0.28
35.84001,4.35,0.12,0.39,-4.89,-1.17,0.04
35.90001,9.77,-1.73,-2.79,-5.46,-1.84,0.69
35.960007,9.81,-3.49,-2.2,-2.18,1.17,-0.49
36.020004,5.88,-2.51,-0.16,-0.99,1.01,-0.11
36.08,8.12,-2.55,-2.28,0.63,-0.61,-0.47
36.15001,10.67,-1.57,-4.98,-0.72,0.71,-0.39
36.210007,11.3,0.71,-1.8,3.67,-1.57,0.01
36.270004,19.65,7.18,-8.79,6.77,0.93,-0.28
36.33,7.41,5.26,-0.2,3.93,4.01,-2.32
36.39,5.57,1.26,0.35,-2.52,-0.64,0.37
36.460007,6.51,1.22,0.31,-3.43,-0.15,1.92
36.520004,3.77,-2.55,1.18,-0.39,1.73,1.47
36.58,4.82,-2.2,3.49,-0.64,-0.86,0.02
36.64,11.02,-0.86,1.53,-0.05,-2.35,-0.4
36.700012,13.61,-1.18,-1.41,1.6,1.13,-0.69
36.770004,19.53,-1.53,-7.18,-2.2,-0.59,2.11
36.83,2.98,2.86,3.92,3.87,5.3,-0.54
36.89,9.38,3.73,-4.55,1.74,-0.83,-0.23
36.950012,14.36,8.04,-7.92,-0.37,-2.92,-1.64
37.01001,3.84,1.29,2.55,-3.37,-0.16,-0.15
37.08,5.49,-0.59,-2.04,-3.35,-1.79,-0.42
37.14,11.14,-1.18,-3.53,-2.64,-0.83,0.21
37.200012,7.1,-1.88,-1.18,-1.56,1,-0.71
37.26001,7.57,-0.35,-0.9,-0.5,0.04,-0.47
37.320007,11.38,-1.77,-2.47,-0.91,-0.53,-0.53
37.39,9.69,-0.24,0.2,-2.38,0.44,0.61
37.450012,11.96,0.27,-0.16,3.31,-1.82,0.52
37.51001,20.01,7.53,-8.47,6.12,1.29,0.23
37.570007,6.94,3.33,-0.35,1.37,2.77,-1.33
37.630005,6.75,0.9,-1.06,-2.77,-0.56,0.95
37.700012,6.86,-1.02,0.55,-1.35,0.7,1.07
37.76001,2.2,-2,1.45,-0.3,1.69,0.16
37.820007,3.77,-1.92,4.16,-1.79,-1.03,0.11
37.880005,17.5,-4.39,0.35,0.55,-1.86,-0.06
37.940002,10.87,0.43,6.43,2.63,1.87,0.45
38.01001,15.22,3.88,-8.32,3.69,-0.64,-0.41
38.070007,2.2,0.67,1.57,4.07,4.6,-1.89
38.130005,5.81,3.26,0.59,1.14,-4.56,0.18
38.190002,10.59,2.51,-3.65,-2.86,-0.64,-0.24
38.25,5.02,-0.86,-0.39,-2.84,-1.19,-0.39
38.320007,10.12,-1.37,-1.84,-3.73,-1.39,0.83
38.380005,7.65,-1.65,-0.2,-0.42,1,-0.32
38.440002,8,0.2,-0.59,1.33,-0.15,-0.74
38.5,8.9,0.94,-2.94,0.22,0.23,-0.43
38.559998,12.28,-2.75,-3.14,-3.45,-0.25,-0.06
38.630005,8.98,-2.43,1.88,-0.19,0.09,1.06
38.690002,14.79,1.88,-4.79,6.23,-1.97,0.4
38.75,16.95,6.71,-5.96,6.44,2.16,-1.02
38.809998,5.45,0.2,0.75,0.46,1.35,-0.15
38.87001,6.67,1.57,-3.02,-1.85,-0.72,1.84
38.940002,4.51,-1.37,1.53,1.05,2.07,0.93
39,2.28,-1.73,1.41,1.43,1.7,0.14
39.059998,6.51,-1.57,2.43,0.68,-2.01,0.26
39.12001,20.01,0.04,-3.96,2.25,-1.75,-0.29
39.180008,17.22,4.35,5.49,-2.09,1.24,2.08
39.25,6.75,4.04,4.31,2.11,2.86,-1.05
39.309998,4.75,1.22,-0.2,1.11,0.63,-0.54
39.37001,11.92,3.49,-2.16,-1.47,-3.49,-0.31
39.430008,7.37,0.12,0.39,-3.15,-0.42,-0.34
39.490005,4.43,-1.69,-0.63,-3.13,0.09,-0.28
39.559998,11.45,-2,-2.55,0.07,-0.59,-0.17
39.62001,6.2,0,0.82,0.4,1.2,-0.86
39.680008,8.83,-0.71,-2.12,-0.36,-0.46,-0.4
39.740005,11.73,-2.55,-4,-2.92,0.28,-0.25
39.800003,9.81,-1.18,0.2,2.51,-1.08,0.63
39.87001,20.01,7.1,-9.38,8.91,-1.3,0.05
39.930008,5.37,7.14,1.77,3.37,4.84,-3.41
39.990005,4.59,1.1,0.31,-1.94,-0.85,0.07
40.050003,8.12,1.88,-0.16,-3,-0.44,1.97
40.11,2.67,-1.53,1.18,-0.42,2.45,1.14
40.180008,2.24,-2.04,3.53,-1.35,-0.04,0.41
40.240005,14.71,-2.28,3.77,-1.17,-4.34,-0.05
40.300003,11.53,-0.82,4,0.72,2.13,0
40.36,18.83,1.53,-5.02,1.15,-1.81,0.69
40.42,1.73,1.33,1.26,4.65,3.78,-2.21
40.490005,7.1,5.61,-0.43,1.21,-3.54,-0.81
40.550003,9.85,3.41,-4.28,-3.59,-0.91,-0.07
40.61,3.33,-0.82,-0.2,-3.72,-1.12,-0.13
40.67,12.08,-1.02,-3.14,-4.37,-2.41,0.91
40.73001,7.65,-2.51,-0.12,-2.19,1.26,-0.01
40.800003,8.24,-1.65,-1.77,-0.01,-0.27,-0.17
40.86,14.55,-2.94,-2.75,-1.2,0.35,-0.28
40.92,6.83,0.51,0.55,2.12,-0.45,0.65
40.98001,20.01,7.06,-12.43,7.18,-1.63,0.48
41.04001,7.02,6.55,2,2.44,4.7,-2.87
41.11,4.35,-0.24,0.9,-2.89,-0.9,0
41.17,8.2,0.39,-1.45,-3.55,-0.88,2.49
41.23001,3.33,-2.16,1.53,0.07,2.64,1.19
41.29001,1.96,-1.37,4.31,-0.26,0.7,0.11
41.350006,10.75,-2.86,2.28,0.15,-4.38,0.09
41.42,17.02,-0.47,-2.94,1.83,2.34,-0.67
41.48001,13.73,1.41,2.98,-2.34,0.7,1.82
41.54001,10.36,5.96,-1.61,5.74,5.77,-2.58
41.600006,2.82,2.79,0.35,3.99,3.88,-1.9
41.660004,6.24,5.61,3.77,0.98,-4.73,1.49
41.73001,10.12,2.98,-3.49,-4.79,-1.41,0.39
41.79001,4.79,-0.55,-0.35,-5.49,-0.92,0.13
41.850006,9.3,-2.79,-2.86,-4.26,-1.55,0.82
41.910004,7.81,-3.77,-1.53,-2.1,1.01,0.02
41.97,7.92,-1.73,-0.67,0.08,0.09,-0.42
42.04001,13.57,-2.9,-3.57,1.69,-0.1,-1.08
42.100006,8.55,1.02,-1.53,2.54,-0.62,0.01
42.160004,14.16,4.12,-7.3,6.27,-1.1,0.23
42.22,14.4,7.61,-5.45,5.34,3.19,-1.09
42.28,6.94,1.8,0.71,-1.46,0.25,0.25
42.350006,8.9,1.26,-3.1,-4.17,-1.14,2.14
42.410004,3.37,-2.63,0.24,-0.73,3.06,1.78
42.47,1.33,-3.1,0.75,0.51,2.7,0.67
42.53,3.33,-1.88,4.31,0.7,-1.64,-0.36
42.59001,20.01,-2.16,-6.32,3.38,-4.32,-0.68
42.78,4.43,1.88,0.2,4.73,4.98,-2.58
42.84001,5.77,5.61,-0.04,0.69,-3.7,-1.1
42.90001,11.69,3.22,-3.8,-3.74,-2.75,0.66
42.97,2.51,-1.33,-2.08,-6.21,-1.68,-0.03
43.03,10.2,-1.18,-1.14,-5.01,-2.47,1.15
43.09001,8.24,-1.18,-2.43,0.71,0.89,-0.2
43.15001,5.1,0,-1.69,0.95,0.92,0.77
43.210007,11.02,-2.04,-1.8,-1.3,-0.35,0.34
43.28,14.75,-5.33,-5.57,-4.61,-0.21,0.5
43.34001,14.79,-5.3,-6.24,0.13,-1.07,-1.85
43.40001,11.65,4.2,0.67,3.92,0.62,-0.69
43.460007,13.85,6.39,-7.69,9.37,1.62,-1.62
43.520004,7.37,11.85,-5.41,5.47,3.92,-2.56
43.59001,4.79,3.06,0.47,-3.02,-0.48,0.62
43.65001,9.14,1.57,-2.04,-4.75,-1.25,1.15
43.710007,4.12,-0.71,1.57,-3.37,1.35,0.9
43.770004,3.96,-1.29,2.2,-1.3,0.62,0.62
43.83,6.51,-1.45,2.51,-1.15,0.3,0.53
43.90001,4.94,-1.57,3.45,-0.79,0.45,0.1
43.960007,8.2,-1.92,2.67,-1.06,-1.1,0.73
44.020004,12.71,-5.26,-0.63,-0.76,-0.9,-0.31
44.08,14.32,1.37,17.18,0.13,1.01,0.7
44.14,13.45,6.28,-5.26,7.35,3.91,-2.65
44.210007,-0.12,4.16,-6.51,3.01,3.87,-1.78
44.270004,16.32,10.24,0.59,-2.82,-7.73,2.11
44.33,9.38,0.47,-0.67,-6.93,-1.08,0.83
44.39,3.14,-2.43,-3.02,-4.48,-0.33,0.79
44.450012,7.41,-1.8,-0.98,-3.43,-1.35,-0.21
44.520004,11.18,-2,-2.71,-0.18,-0.1,-0.16
44.58,6.04,-0.78,0.71,-0.3,1.3,-0.22
44.64,8.24,0.31,-3.53,-0.58,-0.11,-0.59
44.700012,10.12,-3.37,-2.47,-3.93,-0.11,-0.22
44.76001,8.59,-3.8,5.37,-1.59,-0.49,1.22
44.83,15.81,-0.9,-0.12,2.08,-2.51,-0.07
44.89,20.01,6.59,-9.77,9.05,0.23,-1.14
44.950012,3.61,3.92,-0.78,2.94,4.44,-3.05
45.01001,3.02,1.33,1.02,-1.04,0.06,-0.26
45.070007,7.14,1.06,0.27,-2.92,-1.04,1.14
45.14,3.41,-2.16,1.8,-3.19,0.82,1.15
45.200012,4.71,-3.22,1.88,-3.32,-0.68,1.94
45.26001,15.18,-6.47,-1.02,-0.73,-1.92,-0.3
45.320007,9.14,-2.82,2.82,3.72,1.76,0.21
45.380005,20.01,0.55,3.92,-0.39,-0.62,1.68
45.450012,6.35,4.9,-0.24,5.74,6.14,-3.43
45.51001,1.88,2.55,3.88,3.5,4.09,-3.06
45.570007,8.39,5.49,5.3,-1.44,-7.37,1.84
45.630005,6.86,0.31,-0.04,-5.54,-0.77,-0.02
45.690002,5.37,-2.04,-3.33,-5.32,-0.96,0.35
45.76001,10.51,-4.12,-2.59,-1.91,0.15,0.66
45.820007,6.47,-0.86,1.41,0.72,0.96,-0.57
45.880005,8.16,-1.26,-2.51,1.25,-0.55,-0.71
45.940002,10.55,-0.39,-4.47,-3.17,0.05,-0.06
46,12.71,-0.9,-2.55,2.88,-1.77,0.54
46.070007,20.01,8.08,-8.75,7.34,0.15,0.27
46.130005,8.71,5.88,1.45,2.92,2.91,-1.8
46.190002,5.37,0.31,-0.12,-2.16,0.01,0.09
46.25,6.12,-0.35,-0.86,-3.24,0.05,1.73
46.309998,2.82,-2.71,0.47,-0.58,1.9,1
46.380005,2.98,-2.12,3.69,-1.2,0.19,0.57
46.440002,9.96,-3.57,0.47,0.57,-3.03,-0.53
46.5,18.59,-0.51,-4.9,4.8,0.36,-1.09
46.559998,18.08,-0.86,-1.49,-0.11,0.46,2.09
46.62001,2,4.16,2.98,3.43,4.37,-3.23
46.690002,8.04,2.67,0.86,0.29,0.89,-2.08
46.75,16.36,9.49,3.73,-1.5,-5.89,0.77
46.809998,5.02,0.39,1.69,-3.76,0.49,-0.29
46.87001,4.9,-1.37,-1.96,-3.64,-0.82,0.32
46.930008,10.08,-0.86,-2.2,-1.05,-0.5,-0.47
47,8.08,1.02,-2.35,0.32,0.78,-0.25
47.059998,9.41,-1.26,-3.8,-2.14,-0.81,-0.03
47.12001,10.67,-2.63,8.32,-4.13,0.15,1.25
47.180008,11.18,-2.24,-1.45,1.81,-1.82,0.85
47.240005,20.01,5.1,-13.06,9.98,-1.24,-0.09
47.309998,4.9,3.88,1.73,2.8,4.51,-3.13
47.37001,2.16,1.33,-0.27,-0.54,0.52,-0.4
47.430008,5.84,2.08,1.77,-0.3,-0.65,0.86
47.490005,4.35,-1.14,1.73,-1.93,0.62,0.49
47.550003,5.06,-0.94,1.18,-4.25,-1.72,2.04
47.62001,19.73,-5.92,-0.59,-0.8,-1.38,0.36
47.680008,2.98,-3.88,3.88,1.49,3.08,0.98
47.740005,20.01,0.55,-13.69,2.79,-5.16,1.43
47.800003,2.51,3.73,-4.24,6.54,6.55,-4.98
47.86,2.94,5.73,-4.67,0.04,-0.28,-1.34
47.930008,8.36,6.28,2.67,-2.12,-7.8,2.82
47.990005,5.92,-0.24,0.55,-5.48,0.13,-0.11
48.050003,5.49,-2.51,-4.82,-6.2,-1.29,0.49
48.11,12.51,-3.06,-4.08,-2.74,-0.63,0.56
48.17,6.12,-1.69,-0.35,-0.09,0.93,-0.24
48.240005,8.28,-1.88,-2.71,0.23,-0.85,-0.42
48.300003,10.04,-0.47,0.75,-1.37,0.9,-0.24
48.36,10.79,0.12,-3.26,3.62,-2.19,0.39
48.42,20.01,7.14,-14.71,8.75,0.53,0.6
48.48001,5.1,7.02,1.45,2.58,4.72,-3.24
48.550003,3.96,1.29,0.39,-0.9,0.05,0.23
48.61,6.63,0.08,-1.29,-2.25,-0.04,0.88
48.67,1.84,-1.53,2.43,-1.99,1.31,0.83
48.73001,4.28,-2.2,1.33,-2.73,-1.14,1.35
48.79001,19.89,-6.59,2.9,-0.29,-2.88,0.27
48.86,7.85,-1.33,5.45,3.19,3.17,-0.08
48.92,20.01,2.67,-15.97,3.9,-3.02,0.22
48.98001,-4.47,0.71,4.39,3.11,7,-2.76
49.17,5.26,-0.75,3.49,-6.96,0.47,-0.13
49.23001,6.94,-2.39,-3.06,-5.96,0.02,0.53
49.29001,10.24,-4.94,-1.06,-0.04,-0.33,-0.7
49.350006,7.49,-0.27,-0.55,1.67,0.34,-0.47
49.410004,8.75,-0.67,-2.82,0.77,-0.24,-0.32
49.48001,10.98,-1.96,-5.33,-3.16,0.05,-0.17
49.54001,9.89,-1.06,2.79,2.16,-1.2,0.52
49.600006,20.01,4.39,-12,8.58,-1.84,0.12
49.660004,5.26,6.04,0.39,3.88,5.16,-4.15
49.72,2.59,1.49,2.59,-2.11,-0.73,0.64
49.79001,7.22,1.18,-1.84,-2.95,-1.5,1.7
49.850006,2.98,-1.53,1.57,-1.47,1.66,1.2
49.910004,3.37,-1.26,3.57,-1.56,-0.36,1.01
49.97,14,-1.61,0.9,0.57,-3.94,-0.6
50.03,6.75,-4,0.94,-1.4,3.59,1.18
50.100006,20.01,-2.55,-6.59,-3.43,-1.35,2.19
50.160004,3.49,2.63,0.12,6.35,4.04,-2.11
50.22,5.1,2.12,1.8,3,2.02,-2.22
50.28,15.26,10.59,-3.37,-0.05,-4.12,1.13
50.34001,3.33,0.31,2.39,-4.85,-1.04,-0.14
50.410004,8.08,-0.16,-1.92,-5.49,-2.46,0.22
50.47,9.96,-2.67,-3.57,-2.23,0.3,0.14
50.53,5.88,-1.02,0.94,-0.57,0.7,-0.42
50.59001,10.08,0.08,-3.41,1.52,-0.5,-0.51
50.65001,10.9,-1.61,-4.75,-3.3,0.15,-0.08
50.72,12.32,-3.41,-0.24,-0.13,-0.98,1.26
50.78,19.73,3.8,-5.18,7.31,-2.01,0.03
50.84001,10.94,4.94,-5.61,5.78,3.82,-2.42
50.90001,2.43,1.1,1.37,0.54,0.9,-0.23
50.960007,5.88,1.41,-2,-1.29,-0.53,1.35
51.03,4.12,0.08,1.92,-0.25,1.63,0.66
51.09001,4.47,-0.98,1.84,-1.05,-0.13,0.55
51.15001,10.2,-0.9,0,-2,-2.42,0.09
51.210007,17.22,-1.49,-6.67,1.53,0.58,-0.56
51.270004,16.12,-0.94,6.24,-2.57,-0.42,2.41
51.34001,4.82,3.96,0.78,5.14,5,-1.68
51.40001,3.02,0.98,0.71,3.43,4.39,-1.13
51.460007,6.12,4.55,1.49,2.67,-5.77,1.06
51.520004,6.2,0.94,-2.24,-4.71,0.08,-0.59
51.58,6,-1.18,-3.65,-5.21,-2.56,-0.4
51.65001,13.77,-2.47,-3.77,-4.2,-1.06,0.7
51.710007,5.77,-3.45,-0.2,-2.32,1.64,0.58
51.770004,8.75,-2.67,-1.1,0.57,-0.83,-0.58
51.83,11.1,-1.14,-3.33,0.6,0.62,-0.59
51.89,7.81,0.04,-2.9,2.68,-1.28,0.44
51.960007,20.01,5.53,-8.63,5.85,-1.17,1.07
52.020004,7.88,4.82,2.16,0.58,4.63,-2.41
52.08,5.22,-0.82,-0.59,-3.56,-0.55,-0.5
52.14,9.02,-2.08,1.22,-4.18,-1,2.58
52.200012,3.22,-3.14,0.47,0.82,2.86,1.47
52.270004,2.63,-2.47,3.06,-0.52,0,0.02
52.33,8.39,-2.98,1.69,1.67,-3.94,-0.63
52.39,13.45,-1.22,-3.06,3.2,1.53,-0.89
52.450012,13.89,-2,7.26,-2.88,2.19,1.52
52.51001,11.92,5.37,-2.2,8.17,3.78,-2.94
52.58,9.49,2.31,4.59,2.21,-1.16,0.64
52.64,12.71,2.86,-4.35,-5.29,-2.25,0.28
52.700012,5.61,-1.41,0.51,-3.53,-0.71,0.7
52.76001,8.51,-2.35,-1.65,-2.16,-0.97,-0.56
52.820007,8.12,-2.24,-0.47,-0.97,0.84,-0.27
52.89,7.3,-1.14,-1.96,1.02,0.16,-0.77
52.950012,8.9,1.96,-2.79,0.48,0.21,-0.84
53.01001,10.08,-1.45,-1.1,-1.32,-0.23,-0.46
53.070007,11.26,-1.1,4,-1.48,0.06,0.29
53.130005,12.59,1.06,-3.53,4.39,-1.54,0.35
53.200012,19.85,7.02,-8.04,5.71,1.95,0.09
53.26001,4.67,3.41,2.63,-0.13,1.89,-0.95
53.440002,3.49,-2.47,1.29,0.24,1.33,0.36
53.51001,7.06,-2.47,-0.2,-0.28,-2.15,-0.35
53.570007,17.34,-0.75,-5.37,2.61,-0.29,-0.79
53.630005,6.79,-3.45,3.77,-1.93,2.41,1.71
53.690002,20.01,-1.65,-16.36,-4.71,-1.28,2.12
53.75,2.04,2.79,-4.04,9.84,6.11,-3.79
53.820007,-0.16,5.45,-2.94,3.24,3.78,-1.95
53.880005,3.65,2.71,0.31,-2.73,-7.51,3.85
53.940002,12.43,-0.24,-13.02,-6.62,-0.73,0.48
54,6.2,-2.16,-5.14,-8.94,-1.11,-0.28
54.059998,9.34,-6.39,-3.33,-3.51,1.3,1.52
54.130005,5.49,-2.51,1.53,1.26,0.37,-0.08
54.190002,11.3,-1.22,-4,2.57,-1.44,-1.18
54.25,8.83,0.04,-3.96,-1.07,1.32,-0.53
54.309998,10.71,-0.86,2.39,0.58,-2.21,0.46
54.37001,20.01,3.61,-10.28,7.03,-1.97,0.31
54.440002,7.81,5.45,-2.24,5.78,4.42,-3.3
54.5,2.67,1.06,0.94,-0.59,0.48,-0.53
54.559998,6.59,1.88,-2.04,-2.63,-1.34,1.3
54.62001,4.63,-0.98,0.9,-1.86,1.43,1.01
54.680008,4.59,-2.31,1.92,-2.9,-0.22,0.94
54.75,10.98,-4,0.63,-1.77,-2.45,0
54.809998,15.81,-1.57,-4.55,4.08,0.92,-0.65
54.87001,2.47,-4,5.37,-1.9,1.93,1.72
54.930008,20.01,-0.08,-20.01,5.59,-3.27,-1.43
54.990005,2.43,2.24,1.37,6.02,6.44,-3.4
55.059998,3.41,4.71,-0.98,1.33,-2.62,-0.84
55.12001,10.79,3.69,-8.32,-3.68,-3.56,0.78
55.180008,4.59,0,0.39,-5.8,-1.4,0.27
55.240005,10.94,-0.27,-0.78,-4.99,-1.77,1.19
55.300003,7.57,-2.28,-1.22,-1.41,1.38,0.06
55.37001,7.92,-0.51,-0.94,-0.04,-0.04,-0.4
55.430008,11.61,-0.94,-4.43,-0.08,-0.38,-0.43
55.61,19.22,2.9,-5.61,7.26,-1.41,0.38
55.680008,13.34,5.22,-3.22,6.86,3.56,-2.01
55.740005,2.39,1.26,0.51,1.4,1.75,-0.66
55.800003,7.85,2.24,-1.96,-1.43,-1.39,1.51
55.86,4.43,-0.24,0.24,-0.99,1.52,0.59
55.92,2.31,-0.86,2.79,-1.54,0.24,0.63
55.990005,8.87,-1.41,1.57,-1.36,-2.85,1.1
56.050003,15.14,-2.28,-1.41,-0.03,0.59,-0.61
56.11,4.82,-3.49,8.9,0.62,1.72,0.86
56.17,20.01,2.2,-20.01,6.51,-2.27,-1.01
56.23001,-3.57,2.51,6.98,4.6,7.77,-3.04
56.42,4.39,-0.98,1.92,-4.76,0.01,-0.1
56.48001,7.37,-2.9,-2.2,-4.96,-0.75,0.28
56.54001,9.45,-4.2,-2.2,-0.71,0.83,0.14
56.73001,9.85,0.78,-0.31,-1.56,0.93,-0.6
56.79001,10.43,0.51,0.24,1.59,-1.17,0.64
56.850006,20.01,7.53,-8.16,6.57,-0.04,0.48
56.92,6,5.14,1.88,2.16,4,-2.53
56.98001,4.31,1.29,0.67,-2.89,-1.41,-0.28
57.04001,8,-0.71,1.65,-3.53,-0.4,2.29
57.100006,2.59,-3.1,0.27,0.41,2.29,1.39
57.160004,3.57,-1.57,5.3,-0.08,-1.12,0.24
57.23001,17.73,-0.12,0,1.73,-3.9,-0.8
57.29001,10.87,-2.35,-0.75,0.3,2.77,0.32
57.350006,16.04,0.47,5.1,-3.61,0.48,1.81
57.410004,4.9,3.65,-2.55,7.59,4.52,-3.26
57.47,2.9,5.1,3.49,2.69,3.3,-2.79
57.54001,6.2,6.71,2.79,0.89,-5.74,2.18
57.600006,6.63,2.16,-2.63,-3.41,-0.38,-0.6
57.660004,5.69,-0.51,-2.94,-5.41,-1.95,-0.1
57.72,14.59,-3.02,-4.47,-5.18,-1.89,1.35
57.78,5.81,-3.14,0.08,-2.45,1.2,0.62
57.850006,8.08,-3.18,-2.9,1.69,-1.27,-0.73
57.910004,11.45,-0.2,-0.39,0.39,0.82,-0.14
57.97,10.08,1.69,0.24,2.97,-1.15,0.48
58.03,20.01,8.28,-9.45,7.4,0.09,0.1
58.09001,3.92,3.96,4.43,1.03,4.28,-2.56
58.160004,5.57,0.75,-1.02,-3.5,-2.69,0.78
58.22,9.38,-0.55,-0.82,-1.74,0.97,2.09
58.28,2.2,-1.84,0.86,0.35,2.8,0.61
58.34001,2.9,-0.59,3.41,-0.73,-0.31,0.34
58.40001,20.01,-0.67,-0.75,0.82,-4.67,-0.57
58.47,7.57,-0.94,7.53,-0.87,3.43,0.73
58.53,20.01,0.12,-0.75,1.08,-1.8,0.31
58.59001,2.59,-0.35,1.29,3.02,3.9,-0.86
58.65001,6.83,2.08,-2.35,-0.57,-1.33,-0.59
58.710007,10.12,2.24,-6.71,-1.02,-2.54,-0.46
58.78,4.55,-0.94,-1.29,-2.88,-0.03,-0.44
58.84001,12.2,-2.86,-1.92,-3.76,-0.75,0.65
58.90001,6.86,-2.71,-0.24,-0.55,1.1,-0.23
58.960007,7.26,-0.59,-1.45,0.45,-0.06,-0.5
59.020004,10.83,-1.29,-4,0.14,-0.32,-0.65
59.210007,20.01,7.69,-8.59,6.05,1.83,-0.15
59.270004,4.28,2.55,1.33,-0.2,2.54,-1.75
59.33,4.63,0.04,-0.67,-3.54,-0.5,0.21
59.40001,8.67,-1.84,2.71,-1.44,-0.13,2.27
59.460007,3.8,-2.59,0.75,1.58,1.35,0.04
59.520004,5.53,-0.55,2.75,1.36,-1.79,-0.15
59.58,18.32,1.29,-2.35,1.83,-1.72,-0.74
59.64,6.59,-3.41,2.24,-2.22,2.62,1.25
59.710007,20.01,-4.71,-10.63,-0.22,-2.88,1.53
59.770004,3.37,1.57,-2.47,6.55,4.57,-2.13
59.83,5.02,4.51,2.24,2.72,0.66,-1.7
59.89,12.12,6.08,-7.65,0.09,-3.64,1.02
59.950012,4.71,0.94,0.59,-5.09,-1.38,-0.24
60.020004,8.04,-0.94,-4.08,-7.27,-2.97,0.24
60.08,10.04,-4.71,-1.96,-4.08,0.85,1.46
60.14,5.69,-2,1.69,-0.27,0.64,-0.37
60.200012,10.98,-2.31,-4.86,2.74,-1.22,-0.66
60.26001,11.26,-0.86,4.82,-1,1.27,-0.04
60.33,12.32,0.75,-1.96,2.58,-2.03,0.3
60.390015,20.01,6.98,-5.49,7.72,1.15,-0.45
60.450012,5.61,2.98,2.71,1.89,2.9,-1.78
60.51001,7.41,2.67,-1.18,-2.57,-1.76,0.97
60.570007,7.49,0.16,-0.2,-1.27,1.3,1.11
60.640015,3.06,-1.69,2.2,0.41,1.67,0.35
60.700012,4.94,-1.1,2.04,0.36,-1.22,0.32
60.76001,12.36,0.47,-0.59,0.51,-1.36,-0.4
60.820007,12.55,-1.37,-0.16,0.64,0.89,0.01
60.880005,4.86,-4.63,3.18,-1.7,1.24,0.99
60.950012,20.01,-4.59,-13.42,1.35,-3.16,2.17
61.130005,17.65,6.9,-8.87,-4.06,-6.52,1.66
61.320007,8.71,-3.65,-1.26,-0.53,0.88,0.73
61.380005,8.24,-1.57,-1.69,1.41,-0.4,-0.37
61.440002,7.49,0.08,-0.63,0.87,0.75,-0.19
61.5,7.73,-0.39,-0.82,-0.47,-0.06,-0.16
61.570007,7.81,1.14,0.94,0.31,-0.03,0.38
61.630005,20.01,0.86,-3.06,1.44,-1.38,1.45
61.690002,10.2,3.06,1.14,1.53,1.55,-0.26
61.75,6.04,0.08,1.02,-1.28,0.18,-0.04
61.809998,11.26,-1.29,-1.33,-1.34,0.16,-0.2
61.880005,6.71,0.24,1.18,1.58,1.36,-0.35
61.940002,7.57,0.86,0.43,1.26,-0.72,-0.25
62,8.9,0.24,-1.84,-2.36,-0.68,0.37
62.059998,7.73,-1.18,0.9,-2.33,-0.49,0.12
62.119995,13.26,0.67,-2.55,1.72,0.38,-0.67
62.190002,3.96,0.63,0.63,1.99,1.41,-0.56
62.25,11.57,2.16,-1.88,0.19,-1.34,-0.07
62.309998,9.06,0.2,-0.12,-1.43,0.78,0.23
62.369995,9.41,-0.55,-0.43,-0.39,-0.56,0.01
62.429993,8.98,-0.08,-0.63,0.35,0.34,-0.09
62.5,9.73,0.55,-1.26,0.17,-0.05,-0.05
62.559998,9.18,0.04,-0.82,-0.2,0.07,0
62.619995,9.61,0.16,-1.1,0.07,-0.02,-0.05
62.679993,9.22,-0.04,-0.86,0.03,0.13,0.02
62.73999,9.49,-0.35,-0.82,0.07,-0.02,0.02
62.809998,9.49,0.24,-0.98,0.42,0.08,-0.05
62.869995,9.22,0.63,-0.94,0.2,0.09,-0.02
62.929993,9.65,0.12,-1.06,-0.18,0,0.06
62.98999,9.45,0,-0.78,-0.06,0.05,0.02
63.05002,9.45,0.04,-0.86,-0.14,0.04,0.03
63.119995,9.45,-0.12,-0.82,-0.16,0.07,0.04
63.179993,9.49,-0.2,-0.86,-0.15,0.07,0.05
63.23999,9.38,-0.12,-0.94,-0.09,0.05,0.03
63.30002,9.53,-0.04,-1.02,-0.02,0.07,0.03
63.360016,9.34,0.08,-0.82,-0.03,0.06,0.03
63.429993,9.49,-0.12,-0.82,-0.08,0.05,0.02
63.48999,9.38,0,-0.9,0.06,0.07,-0.01
63.55002,9.38,-0.16,-0.86,-0.02,0.06,0.01
63.610016,9.49,-0.2,-0.94,0.01,0.06,0.02
63.670013,9.41,-0.16,-0.86,0.08,0.09,-0.01
63.73999,9.53,-0.08,-0.75,0.09,0.07,-0.01
63.80002,9.45,0.12,-0.67,0.12,0.11,-0.02
63.860016,9.45,0.08,-0.67,0.05,0.07,0
63.920013,9.53,0.12,-0.67,0.05,0.09,0.01
63.98001,9.3,0.04,-0.59,-0.02,0.09,0.03
64.05002,9.65,-0.12,-0.63,-0.06,0.05,0.01
64.110016,9.38,0,-0.59,0.08,0.09,0.02
64.17001,9.45,0.12,-0.59,-0.03,0.06,0.02
64.23001,9.45,0,-0.55,-0.04,0.05,0.02
64.29001,9.41,-0.04,-0.47,-0.07,0.07,0.01
64.360016,9.53,-0.04,-0.71,0.04,0.07,-0.02
64.42001,9.38,0.24,-0.55,0.06,0.06,-0.01
64.48001,9.53,0.16,-0.59,-0.02,0.04,0.01
64.54001,9.41,0.08,-0.55,0.02,0.08,0.01
64.600006,9.49,0.04,-0.47,0,0.05,0.01
64.67001,9.45,0.08,-0.47,0.09,0.06,0
64.73001,9.53,0,-0.47,0.02,0.05,0.02
64.79001,9.45,0.2,-0.47,0.13,0.06,0.01
64.850006,9.45,0.12,-0.43,0.06,0.06,0.02
64.91,9.57,0.16,-0.43,0.08,0.05,0.02
64.98001,9.45,0.12,-0.43,0.02,0.05,0.01
