NAME:,walk_123_3_1,,,,,
EXPERIMENT TIME:,08/03/2024 09:45:10,,,,,
ACTIVITY TYPE:,Walking,,,,,
COUNT OF ACTUAL STEPS:,150,,,,,
,,,,,,
Time [sec],ACC X,ACC Y,ACC Z,GYRO X,GYRO Y,GYRO Z
.0000,-11.06,4.00,2.82,0.54,-0.01,-0.34
.0820,-9.92,5.02,5.37,-0.90,0.03,-0.85
.1640,-11.10,3.57,4.12,0.20,0.05,-0.00
.2460,-7.88,2.55,2.24,-0.25,0.39,0.30
.3280,-7.22,2.51,1.49,-0.03,0.15,0.33
.4100,-7.81,2.35,0.75,-0.19,-0.00,0.07
.4920,-9.18,1.96,1.80,-0.47,-0.14,-0.14
.5740,-12.20,1.49,0.43,-0.29,0.13,0.00
.6560,-14.16,3.45,3.61,-0.82,0.36,0.34
.7380,-7.81,2.63,2.82,0.49,1.02,0.02
.8200,-7.61,4.43,4.35,-0.62,-0.16,0.40
.9020,-9.22,3.06,3.53,0.14,-0.54,-0.34
.9840,-7.45,1.37,2.39,0.12,-0.29,0.03
1.0660,-8.47,2.31,2.43,0.09,-0.38,0.28
1.1480,-9.89,2.90,2.71,0.43,0.02,0.40
1.2300,-11.45,1.33,2.67,0.56,-0.04,0.03
1.3120,-11.34,5.18,3.80,-0.06,0.18,-0.26
1.3940,-9.10,4.51,4.90,-0.54,0.21,-0.97
1.4760,-12.47,3.69,3.84,-0.04,-0.04,-0.14
1.5580,-7.02,2.31,2.12,-0.08,0.27,0.35
1.6400,-6.83,2.75,1.45,0.06,0.11,0.47
1.7220,-7.57,2.43,0.98,-0.13,-0.16,0.21
1.8040,-10.20,2.55,1.37,-0.37,-0.19,0.01
1.8860,-13.85,1.96,-0.24,0.09,0.02,-0.24
1.9680,-14.98,7.69,3.10,0.47,-0.32,0.13
2.0500,-9.06,3.22,5.45,0.22,0.22,0.19
2.1320,-7.30,4.51,3.53,-0.29,-0.46,-0.00
2.2140,-7.30,2.12,3.37,0.55,-0.63,-0.35
2.2960,-7.37,2.08,2.79,0.28,-0.33,0.05
2.3780,-9.96,2.94,3.10,0.81,-0.12,0.10
2.4600,-12.04,1.29,0.31,0.45,0.01,-0.03
2.5420,-11.89,4.24,3.02,0.26,-0.18,-0.12
2.6240,-8.63,3.73,6.71,-0.88,0.16,-1.12
2.7060,-12.28,5.49,4.82,-0.26,0.23,-0.10
2.7880,-6.63,1.84,2.00,0.01,0.39,0.32
2.8700,-6.16,2.04,1.22,-0.17,0.29,0.62
2.9520,-6.86,2.12,0.51,-0.67,0.26,0.27
3.0340,-12.20,3.80,3.45,-0.65,-0.08,-0.36
3.1160,-14.87,2.86,3.02,0.21,0.26,0.06
3.1980,-6.67,5.41,1.73,0.54,0.53,0.27
3.2800,-8.47,3.84,5.37,0.09,-0.43,0.06
3.3620,-7.81,4.08,3.96,0.29,-0.89,-0.20
3.4440,-6.59,0.98,3.22,0.54,-0.51,-0.18
3.5260,-8.24,2.75,3.10,0.42,-0.23,0.23
3.6080,-9.92,1.26,1.06,0.51,0.37,0.03
3.6900,-12.36,3.41,2.28,0.00,-0.05,-0.05
3.7720,-8.79,4.94,5.77,-0.61,0.23,-0.72
3.8540,-10.28,5.41,5.84,-0.64,-0.05,-0.47
3.9360,-7.73,2.51,3.26,0.30,0.39,0.29
4.0180,-6.28,2.43,1.29,-0.02,0.37,0.51
4.1000,-5.77,1.61,0.55,-0.33,0.01,0.25
4.1820,-11.22,3.22,1.73,-0.72,-0.03,-0.29
4.2640,-13.89,2.24,-1.61,0.28,0.35,0.15
4.3460,-16.12,11.45,13.18,-0.27,-0.66,0.44
4.4280,-6.59,1.65,4.12,-0.03,0.49,0.00
4.5100,-8.63,4.47,4.67,-0.26,-0.95,-0.31
4.5920,-6.08,1.73,2.75,0.35,-0.37,-0.24
4.6740,-8.16,2.75,2.55,0.21,-0.27,0.27
4.7560,-9.45,2.39,2.79,0.46,0.25,0.25
4.8380,-12.55,1.49,0.59,0.34,0.04,-0.01
4.9200,-10.55,5.57,4.20,0.07,0.02,-0.27
5.0020,-10.28,4.75,6.47,-0.97,-0.14,-1.10
5.0840,-11.89,4.35,4.31,0.50,0.23,0.11
5.1660,-6.75,2.00,1.57,-0.12,0.39,0.35
5.2480,-7.06,1.37,1.45,-0.07,0.01,0.46
5.3300,-7.57,2.20,0.67,-0.54,-0.12,0.16
5.4120,-14.47,3.80,2.39,-0.41,-0.25,-0.18
5.4940,-13.38,4.31,6.04,0.39,0.92,0.21
5.5760,-5.96,2.94,3.45,0.22,0.90,0.09
5.6580,-7.37,4.16,3.88,-0.38,-0.55,0.11
5.7400,-6.35,2.28,3.06,0.20,-0.52,-0.32
5.8220,-6.67,1.73,2.47,0.02,-0.14,0.15
5.9040,-9.89,2.39,2.75,0.53,0.16,0.17
5.9860,-13.10,2.04,0.78,0.37,-0.02,0.07
6.0680,-12.24,6.32,4.24,-0.25,0.01,-0.22
6.1500,-8.71,5.10,5.84,-0.76,0.04,-1.12
6.2320,-11.96,4.12,4.75,0.60,-0.00,0.04
6.3140,-6.24,1.69,0.82,0.10,0.40,0.34
6.3960,-5.57,1.65,0.55,-0.10,0.00,0.30
6.4780,-8.39,2.43,0.59,-0.40,-0.03,0.05
6.5600,-14.87,4.16,1.29,-0.27,-0.06,0.02
6.6420,-14.28,5.77,6.71,0.03,0.63,0.17
6.7240,-7.77,3.02,3.96,0.47,0.62,0.13
6.8060,-7.18,4.20,3.92,-0.32,-0.76,-0.08
6.8880,-6.86,2.20,2.82,0.51,-0.61,-0.33
6.9700,-6.59,1.29,2.28,0.24,-0.28,0.10
7.0520,-10.28,3.22,2.90,0.49,0.01,0.36
7.1340,-12.55,1.65,0.67,0.22,0.08,0.05
7.2160,-13.34,6.12,3.33,0.36,-0.04,-0.16
7.2980,-7.85,4.12,6.55,-1.39,-0.01,-1.03
7.3800,-12.75,4.71,4.43,0.01,0.43,-0.08
7.4620,-6.75,1.84,1.57,-0.47,0.63,0.51
7.5440,-6.79,2.43,1.49,-0.34,0.11,0.62
7.6260,-6.98,1.92,0.24,-0.56,0.02,0.31
7.7080,-13.30,2.71,3.33,-0.36,-0.23,-0.38
7.7900,-13.49,1.18,5.33,0.05,0.39,-0.06
7.8720,-5.96,5.65,1.06,0.53,0.86,0.33
7.9540,-9.06,3.77,5.14,-0.07,-0.57,0.05
8.0360,-7.92,2.82,3.26,0.32,-0.78,-0.30
8.1180,-6.20,1.53,2.67,0.27,-0.51,-0.08
8.2000,-8.59,2.71,2.67,0.46,-0.35,0.30
8.2820,-11.61,1.73,0.94,0.35,-0.02,0.10
8.3640,-12.40,4.94,3.45,0.14,-0.05,-0.27
8.4460,-8.24,2.90,6.79,-0.48,0.03,-1.01
8.5280,-12.71,6.16,5.22,-0.45,0.27,-0.33
8.6100,-6.28,1.65,1.88,0.13,0.60,0.35
8.6920,-5.88,2.24,1.22,-0.14,0.16,0.60
8.7740,-6.79,2.31,0.27,-0.44,-0.12,0.17
8.8560,-12.55,3.18,3.49,-0.54,-0.05,-0.42
8.9380,-14.08,2.08,2.31,0.29,0.30,0.00
9.0200,-5.41,4.35,1.57,0.61,0.70,0.36
9.1020,-8.71,4.39,5.10,-0.49,-0.43,0.21
9.1840,-7.69,3.37,3.61,0.21,-0.74,-0.27
9.2660,-6.32,1.02,2.86,0.16,-0.37,-0.02
9.3480,-8.98,3.18,2.98,0.27,-0.25,0.25
9.4300,-10.12,1.84,2.08,0.46,0.15,0.06
9.5120,-12.36,2.94,1.69,0.19,-0.08,-0.12
9.5940,-8.75,5.26,6.35,-0.38,0.26,-0.76
9.6760,-10.63,5.92,5.96,-0.66,0.19,-0.57
9.7580,-7.57,1.80,3.06,0.40,0.46,0.33
9.8400,-6.32,2.28,1.22,0.02,0.23,0.54
9.9220,-6.24,1.69,0.55,-0.30,-0.06,0.25
10.0040,-10.83,2.75,1.02,-0.32,-0.07,-0.28
10.0860,-14.16,2.71,-1.06,0.11,0.00,-0.03
10.1680,-15.49,11.18,10.00,0.31,-0.57,0.45
10.2500,-8.00,2.28,4.90,0.21,-0.00,0.02
10.3320,-7.41,4.35,4.12,-0.22,-0.86,-0.13
10.4140,-6.16,1.92,2.98,0.39,-0.49,-0.24
10.4960,-8.04,2.39,2.31,0.27,-0.13,0.27
10.5780,-9.53,2.47,1.84,0.49,0.40,0.21
10.6600,-12.79,2.51,1.69,0.32,-0.01,-0.10
10.7420,-9.22,3.96,5.88,-0.69,0.16,-0.77
10.8240,-10.24,6.20,5.02,-0.90,0.19,-0.58
10.9060,-7.53,2.24,3.06,0.32,0.42,0.32
10.9880,-6.20,2.28,1.06,0.02,0.26,0.46
11.0700,-6.71,1.73,0.67,-0.25,-0.15,0.24
11.1520,-11.49,2.82,1.26,-0.44,0.01,-0.36
11.2340,-14.75,1.57,0.75,-0.01,0.21,0.02
11.3160,-10.63,7.53,2.90,0.36,0.10,0.44
11.3980,-8.55,3.18,5.26,-0.32,-0.37,0.13
11.4800,-7.88,3.45,3.61,-0.14,-0.80,-0.14
11.5620,-6.28,0.86,2.55,0.10,-0.39,-0.02
11.6440,-7.92,2.94,2.98,0.13,-0.15,0.37
11.7260,-11.34,2.47,1.49,0.41,0.31,0.12
11.8080,-12.67,2.98,2.39,0.28,-0.04,-0.19
11.8900,-8.36,4.90,6.39,-0.78,0.32,-0.92
11.9720,-12.16,6.39,5.06,-0.38,0.31,-0.38
12.0540,-6.94,1.69,2.43,0.26,0.54,0.35
12.1360,-5.96,2.08,0.90,0.09,0.26,0.55
12.2180,-7.14,2.08,0.27,-0.38,-0.08,0.21
12.3000,-13.42,2.94,2.16,-0.44,-0.00,-0.48
12.3820,-14.98,-1.88,0.55,0.20,0.29,0.01
12.4640,-8.24,7.22,3.49,0.75,0.51,0.64
12.5460,-7.96,3.30,4.67,-0.27,-0.24,-0.12
12.6280,-7.77,3.80,3.45,0.30,-0.76,-0.27
12.7100,-6.79,1.18,2.82,0.37,-0.43,-0.01
12.7920,-9.02,2.67,2.94,0.50,-0.27,0.30
12.8740,-11.38,2.31,1.02,0.50,-0.10,0.13
12.9560,-12.94,3.80,2.86,0.25,-0.07,-0.25
13.0380,-8.79,4.20,6.43,-1.28,0.14,-0.99
13.1200,-11.96,6.08,4.82,-0.02,0.35,-0.16
13.2020,-6.79,2.00,1.53,0.04,0.44,0.36
13.2840,-6.20,1.57,1.02,-0.20,0.08,0.57
13.3660,-7.26,2.12,0.27,-0.60,-0.02,0.25
13.4480,-15.26,3.77,2.08,-0.54,-0.31,-0.21
13.5300,-12.16,2.08,3.77,0.18,0.74,-0.11
13.6120,-6.90,4.82,2.51,0.65,0.78,0.42
13.6940,-7.57,4.43,4.31,-0.59,-0.52,-0.10
13.7760,-7.06,3.10,3.30,0.32,-0.55,-0.27
13.8580,-6.20,1.06,2.51,0.27,-0.29,0.02
13.9400,-10.71,3.10,3.14,0.57,-0.09,0.40
14.0220,-12.04,1.77,0.98,0.21,0.06,-0.05
14.1040,-11.53,4.12,1.65,0.34,-0.11,-0.23
14.1860,-6.71,3.22,6.00,-0.51,0.18,-0.94
14.2680,-13.38,6.51,5.49,-0.13,0.17,-0.41
14.3500,-6.98,1.41,1.61,0.02,0.42,0.43
14.4320,-5.92,2.04,0.94,-0.07,0.19,0.67
14.5140,-6.86,2.31,0.39,-0.63,-0.09,0.31
14.5960,-12.83,3.02,3.45,-0.53,-0.09,-0.32
14.6780,-15.73,-0.47,-0.55,0.17,0.35,0.01
14.7600,-12.28,9.65,4.82,0.23,-0.25,0.66
14.8420,-7.88,2.12,4.28,-0.15,-0.04,0.00
14.9240,-8.28,3.49,3.33,-0.27,-0.76,-0.04
15.0060,-6.55,1.65,2.82,-0.13,-0.32,0.01
15.0880,-8.20,2.71,2.79,0.14,-0.02,0.26
15.1700,-10.47,2.04,1.41,0.48,0.20,0.15
15.2520,-12.43,4.08,2.35,0.14,-0.05,-0.21
15.3340,-8.32,4.86,6.67,-0.95,0.10,-0.95
15.4160,-12.12,6.47,4.63,0.21,0.21,-0.40
15.4980,-6.71,1.73,1.77,0.38,0.49,0.33
15.5800,-6.59,2.35,1.33,0.10,-0.00,0.37
15.6620,-6.94,2.43,0.27,-0.12,-0.23,-0.02
15.7440,-11.81,2.39,2.82,-0.09,-0.15,-0.67
15.8260,-14.75,0.04,5.33,0.24,0.08,-0.27
15.9080,-4.98,5.49,0.71,1.15,1.35,0.79
15.9900,-8.79,4.79,5.26,-0.21,-0.47,-0.12
16.0720,-7.30,3.37,3.06,0.97,-0.61,-0.52
16.1540,-7.85,2.43,3.61,1.12,-0.95,-0.47
16.2360,-9.69,2.04,2.43,1.15,-0.48,-0.28
16.3180,-11.02,1.65,1.61,0.66,-0.08,-0.25
16.4000,-10.12,4.16,1.14,0.84,-0.14,-0.26
16.4820,-10.55,6.16,4.63,1.08,0.07,-0.74
16.5640,-10.00,7.10,6.12,0.25,0.04,-0.95
16.6460,-8.55,1.69,3.61,1.50,0.18,0.00
16.7280,-7.81,2.12,1.22,1.07,-0.06,0.06
16.8100,-6.83,2.20,0.12,0.29,-0.17,0.06
16.8920,-11.18,1.37,-0.20,0.28,-0.22,-0.43
16.9740,-11.65,2.20,-0.39,-0.10,0.07,-0.09
17.0560,-17.93,8.90,6.43,0.59,-0.96,0.23
17.1380,-6.51,3.30,4.12,1.01,0.21,-0.48
17.2200,-8.87,5.26,4.71,0.75,-0.76,-0.38
17.3020,-6.20,2.59,3.73,1.47,-0.97,-0.72
17.3840,-8.83,1.49,3.18,1.46,-0.82,-0.39
17.4660,-10.04,1.57,2.31,1.14,-0.09,-0.27
17.5480,-10.59,2.16,0.39,0.60,0.01,-0.05
17.6300,-12.63,4.28,3.26,0.91,-0.28,-0.35
17.7120,-10.20,4.24,6.16,-0.05,-0.34,-1.18
17.7940,-10.75,5.30,5.41,0.25,-0.10,-0.21
17.8760,-6.63,2.51,2.63,1.48,-0.03,-0.14
17.9580,-6.59,0.55,1.57,1.29,-0.37,-0.32
18.0400,-9.73,1.88,1.26,0.46,-0.31,-0.08
18.1220,-11.77,2.94,0.59,0.04,0.01,-0.11
18.2040,-9.41,6.35,6.86,0.22,0.27,-0.17
18.2860,-5.61,2.55,1.45,1.11,0.44,-0.49
18.3680,-9.06,4.28,4.12,0.28,-0.52,-0.16
18.4500,-7.10,3.57,3.22,0.92,-0.71,-0.47
18.5320,-6.98,1.96,2.67,0.92,-0.67,-0.22
18.6140,-8.32,2.51,2.51,0.85,-0.34,-0.14
18.6960,-11.49,1.22,1.41,1.08,-0.08,-0.11
18.7780,-11.96,1.41,1.22,0.35,-0.09,-0.25
18.8600,-7.61,6.94,6.63,-0.39,0.41,-0.70
18.9420,-12.36,8.32,5.61,0.40,-0.09,-0.66
19.0240,-6.63,0.86,2.04,1.12,0.41,0.12
19.1060,-6.59,2.51,1.22,0.62,0.03,0.21
19.1880,-6.75,2.59,0.59,0.10,-0.06,0.06
19.2700,-12.36,1.73,-0.16,0.18,-0.05,-0.51
19.3520,-10.98,-0.08,-0.94,0.01,0.13,-0.27
19.4340,-7.06,5.92,0.27,1.06,0.58,0.10
19.5160,-9.81,4.79,4.82,0.16,-0.48,-0.12
19.5980,-7.45,3.65,3.65,0.95,-0.59,-0.53
19.6800,-7.92,1.84,3.22,1.21,-0.86,-0.35
19.7620,-9.65,1.53,2.28,0.91,-0.34,0.03
19.8440,-9.89,2.04,1.06,0.62,-0.10,0.03
19.9260,-11.22,5.18,2.75,0.62,0.00,-0.34
20.0080,-9.92,3.69,6.71,0.05,-0.16,-0.92
20.0900,-12.32,4.71,4.28,0.61,0.43,-0.13
20.1720,-7.53,2.35,1.69,0.20,0.28,0.31
20.2540,-6.43,1.69,0.55,0.17,0.14,-0.15
20.3360,-8.98,3.45,1.41,0.12,0.17,-0.12
20.4180,-10.43,2.35,0.08,-0.25,0.18,0.17
20.5000,-12.00,5.06,3.37,-0.39,0.00,0.15
20.5820,-9.61,5.41,6.55,-0.02,-0.47,0.25
20.6640,-9.34,5.92,6.24,-0.27,-0.86,0.21
20.7460,-7.65,2.47,4.04,0.65,-0.88,-0.52
20.8280,-6.75,1.69,2.47,0.69,-0.67,-0.37
20.9100,-6.47,1.22,3.06,0.53,-0.63,-0.33
20.9920,-10.71,2.16,2.55,0.26,-0.50,-0.17
21.0740,-12.94,5.49,8.36,0.06,-0.25,0.06
21.1560,-10.67,5.10,6.08,-0.23,0.56,-0.09
21.2380,-10.43,4.16,4.79,0.13,0.60,0.26
21.3200,-6.32,2.94,2.71,-0.01,0.68,0.39
21.4020,-4.31,2.00,1.57,-0.22,0.86,0.32
21.4840,-6.79,2.20,0.04,-0.38,0.47,0.11
21.5660,-11.26,3.73,0.59,-0.17,0.23,0.22
21.6480,-12.08,8.16,6.59,-0.11,-0.22,0.60
21.7300,-8.28,1.77,4.67,-0.01,-0.60,-0.37
21.8120,-9.45,4.39,5.06,-0.20,-0.56,-0.26
21.8940,-6.24,2.35,3.37,0.23,-0.35,-0.36
21.9760,-5.92,2.31,2.90,0.49,-0.21,-0.33
22.0580,-6.43,1.22,2.35,0.41,-0.23,-0.18
22.1400,-10.83,2.12,2.82,0.02,-0.43,0.14
22.2220,-14.08,4.00,7.41,0.27,-0.21,0.10
22.3040,-11.73,4.47,6.55,-0.64,0.35,-0.10
22.3860,-9.77,3.92,4.94,0.01,0.60,0.06
22.4680,-6.86,3.49,4.08,-0.28,0.55,0.38
22.5500,-3.33,1.61,1.65,-0.15,0.60,0.01
22.6320,-5.53,2.00,1.61,-0.40,0.51,-0.06
22.7140,-9.30,2.98,0.71,-0.36,0.46,-0.04
22.7960,-13.30,3.77,2.12,-0.45,-0.13,0.15
22.8780,-13.69,6.79,4.43,-0.08,-0.12,0.55
22.9600,-8.59,3.41,4.39,-0.23,-0.49,0.19
23.0420,-8.55,4.39,3.61,0.14,-0.38,-0.45
23.1240,-6.75,1.80,3.53,0.36,-0.28,-0.00
23.2060,-5.02,1.53,1.92,0.31,-0.11,-0.22
23.2880,-6.75,1.92,2.67,0.31,-0.34,0.10
23.3700,-11.57,2.12,0.51,0.72,0.03,0.27
23.4520,-14.44,3.80,4.00,0.25,-0.04,-0.14
23.5340,-11.26,4.24,8.43,-0.83,-0.09,-0.96
23.6160,-10.94,4.71,4.71,-0.05,0.49,-0.15
23.6980,-5.57,1.18,1.73,0.00,0.60,0.25
23.7800,-6.08,2.63,2.04,-0.49,0.56,0.40
23.8620,-7.18,2.16,1.14,-0.34,0.16,0.06
23.9440,-11.18,3.22,1.37,-0.62,0.18,-0.21
24.0260,-13.61,0.59,-1.57,-0.04,0.14,-0.01
24.1080,-13.02,7.88,3.61,0.57,-0.66,0.53
24.1900,-8.39,2.82,5.06,-0.19,-0.21,0.05
24.2720,-8.67,4.55,4.55,-0.01,-0.78,-0.15
24.3540,-6.32,1.80,3.06,0.31,-0.39,-0.11
24.4360,-8.00,2.94,2.79,0.36,-0.27,0.29
24.5180,-9.61,2.00,1.45,0.57,0.32,0.23
24.6000,-12.04,1.73,0.94,0.23,0.07,0.01
24.6820,-11.22,5.84,4.86,-0.39,0.33,-0.59
24.7640,-9.53,6.51,6.16,-0.98,0.29,-0.70
24.8460,-10.43,3.10,4.04,0.30,0.50,0.16
24.9280,-7.61,3.18,1.80,-0.35,0.30,0.54
25.0100,-6.35,2.63,1.02,-0.11,0.01,0.04
25.0920,-10.04,1.77,0.43,-0.21,0.27,-0.06
25.1740,-10.08,1.77,-0.63,-0.58,0.27,0.11
25.2560,-11.30,4.47,3.61,-0.21,0.13,0.10
25.3380,-8.90,7.69,6.32,-0.02,-0.22,0.37
25.4200,-10.00,3.77,5.18,-0.04,-0.66,-0.06
25.5020,-7.30,3.22,4.31,0.06,-0.81,-0.11
25.5840,-5.73,2.43,3.45,0.33,-0.56,-0.21
25.6660,-6.75,1.06,2.55,0.66,-0.52,-0.26
25.7480,-12.55,2.00,3.22,0.23,-0.64,-0.16
25.8300,-12.16,6.98,8.94,0.14,-0.09,0.15
25.9120,-10.47,5.14,5.22,-0.13,0.76,-0.07
25.9940,-9.92,2.98,3.57,0.13,0.54,0.38
26.0760,-6.47,3.18,1.96,-0.23,0.57,0.32
26.1580,-5.14,1.41,1.33,-0.26,0.56,0.15
26.2400,-8.16,2.86,1.26,-0.67,0.22,0.29
26.3220,-12.36,3.84,3.49,-0.23,0.03,0.10
26.4040,-14.20,6.71,5.61,0.30,-0.15,0.28
26.4860,-7.65,3.41,4.79,-0.52,-0.60,-0.09
26.5680,-8.20,4.39,4.82,0.34,-0.63,-0.34
26.6500,-6.35,1.65,3.30,0.40,-0.39,-0.36
26.7320,-6.32,1.88,3.06,0.36,-0.40,-0.25
26.8140,-9.10,2.71,3.10,0.21,-0.58,-0.08
26.8960,-13.49,3.77,3.65,0.18,-0.33,-0.09
26.9780,-11.18,8.08,8.51,-0.71,0.16,0.26
27.0600,-9.45,4.71,4.86,0.34,0.73,-0.02
27.1420,-8.79,2.71,3.49,0.27,0.56,0.19
27.2240,-5.92,3.10,3.33,0.02,0.21,-0.02
27.3060,-4.71,1.65,1.49,-0.36,0.42,0.06
27.3880,-10.28,3.14,1.45,-0.10,-0.33,0.10
27.4700,-12.71,4.20,4.75,0.20,0.12,0.15
27.5520,-7.85,5.92,2.39,0.45,0.19,0.33
27.6340,-8.63,4.43,3.92,0.13,-0.56,0.07
27.7160,-8.16,3.88,3.65,0.28,-0.57,-0.56
27.7980,-6.24,1.41,3.06,0.45,-0.55,-0.22
27.8800,-6.59,1.45,2.82,-0.03,-0.19,-0.08
27.9620,-8.12,2.43,3.22,0.11,0.16,0.06
28.0440,-11.49,2.31,1.77,0.26,0.37,0.18
28.1260,-12.28,3.26,2.12,0.22,0.03,0.11
28.2080,-11.89,4.43,3.69,-0.78,0.28,-0.60
28.2900,-8.51,6.00,5.96,-0.82,0.32,-0.39
28.3720,-9.14,3.33,3.80,0.39,0.17,0.07
28.4540,-6.55,2.00,2.08,-0.37,0.24,0.31
28.5360,-7.41,3.33,2.28,-0.31,0.18,0.41
28.6180,-7.77,1.77,0.98,-0.33,0.01,0.11
28.7000,-9.73,3.37,2.00,-0.75,-0.01,0.13
28.7820,-13.77,1.37,-1.26,0.02,0.00,-0.04
28.8640,-13.69,11.49,7.26,0.42,-0.60,0.41
28.9460,-7.81,2.98,4.51,0.56,0.29,0.01
29.0280,-7.73,4.28,3.92,-0.20,-0.58,-0.31
29.1100,-6.39,2.43,3.30,0.60,-0.53,-0.43
29.1920,-7.65,2.04,2.67,0.41,-0.24,0.03
29.2740,-9.57,2.59,2.31,0.67,-0.11,0.14
29.3560,-11.69,2.28,0.39,0.77,-0.05,0.13
29.4380,-11.81,4.28,2.12,0.10,-0.18,-0.20
29.5200,-8.12,5.30,8.51,-1.14,0.28,-1.14
29.6020,-13.02,6.12,4.79,0.13,0.37,-0.27
29.6840,-6.79,1.53,2.00,-0.39,0.63,0.57
29.7660,-5.84,3.02,2.59,-0.37,-0.18,0.66
29.8480,-9.69,3.14,2.51,-0.10,0.06,-0.09
29.9300,-12.47,1.45,0.27,-0.28,0.21,-0.00
30.0120,-12.47,4.51,4.16,-0.64,0.10,0.09
30.0940,-9.38,5.02,3.96,0.10,0.11,0.29
30.1760,-9.81,5.81,5.92,-0.04,-0.47,0.32
30.2580,-9.18,4.24,5.53,-0.10,-0.66,-0.06
30.3400,-6.12,2.86,3.61,0.01,-0.64,-0.05
30.4220,-6.28,1.84,3.10,0.40,-0.50,-0.29
30.5040,-7.53,1.61,1.96,0.23,-0.33,-0.36
30.5860,-13.42,3.26,3.80,0.40,-0.37,-0.21
30.6680,-11.38,6.98,7.85,-0.44,0.17,0.11
30.7500,-8.98,4.86,4.35,0.13,0.54,-0.23
30.8320,-8.90,2.82,3.73,0.11,0.64,0.24
30.9140,-4.90,2.71,2.16,-0.27,0.54,0.37
30.9960,-5.30,2.47,1.65,-0.21,0.41,0.03
31.0780,-8.87,2.71,1.45,-0.50,0.18,-0.05
31.1600,-11.92,3.69,1.77,-0.18,0.01,0.21
31.2420,-13.34,5.49,4.08,0.01,-0.23,0.23
31.3240,-9.22,3.57,4.82,-0.24,-0.26,0.19
31.4060,-7.69,5.53,4.82,-0.31,-0.60,-0.05
31.4880,-6.67,2.28,3.96,0.65,-0.52,-0.44
31.5700,-6.32,1.61,2.90,0.54,-0.38,-0.29
31.6520,-7.30,1.49,2.82,0.53,-0.55,-0.30
31.7340,-11.38,2.98,3.30,0.30,-0.55,-0.01
31.8160,-13.77,4.24,7.61,0.13,-0.15,0.12
31.8980,-10.36,5.33,6.04,-0.40,0.48,-0.20
31.9800,-9.69,3.80,5.06,0.12,0.69,0.08
32.0620,-6.24,3.73,2.82,-0.01,0.72,0.32
32.1440,-4.24,2.16,2.08,0.01,0.50,-0.01
32.2260,-5.57,2.39,1.06,-0.41,0.58,-0.07
32.3080,-12.20,2.39,0.78,-0.12,-0.09,-0.05
32.3900,-13.77,3.10,1.65,-0.23,-0.19,0.28
32.4720,-13.30,5.88,4.12,0.31,-0.52,0.59
32.5540,-8.24,3.65,4.55,-0.21,-0.61,-0.03
32.6360,-8.08,5.10,4.20,0.17,-0.60,-0.28
32.7180,-6.04,1.14,3.06,0.26,-0.39,-0.21
32.8000,-6.35,1.73,2.67,-0.07,-0.22,0.09
32.8820,-7.61,2.55,2.71,0.02,0.30,0.14
32.9640,-13.18,1.88,1.29,0.20,0.03,0.25
33.0460,-13.02,4.63,4.31,0.03,-0.10,0.02
33.1280,-10.32,4.24,6.86,-0.67,0.13,-0.99
33.2100,-10.43,4.00,4.90,-0.11,0.34,-0.22
33.2920,-6.28,2.04,2.55,0.16,0.37,0.19
33.3740,-7.14,2.39,1.84,-0.16,0.25,0.39
33.4560,-7.92,2.24,1.14,-0.22,0.05,0.19
33.5380,-9.89,2.63,1.73,-0.70,0.00,0.14
33.6200,-13.96,3.53,0.55,0.18,0.09,0.06
33.7020,-12.04,3.22,6.47,-0.64,0.55,0.10
33.7840,-6.79,2.90,2.86,0.75,0.65,0.18
33.8660,-8.08,4.16,4.79,-0.93,-0.55,-0.08
33.9480,-6.16,2.86,3.61,0.00,-0.33,-0.07
34.0300,-8.00,2.79,3.45,0.05,-0.14,0.24
34.1120,-8.08,2.39,2.28,0.32,0.09,0.25
34.1940,-11.30,3.06,1.61,0.57,0.17,0.29
34.2760,-12.04,3.02,1.69,0.19,0.14,-0.14
34.3580,-7.88,2.75,7.77,-1.12,0.23,-0.62
34.4400,-11.38,6.67,4.63,-0.78,0.52,-0.27
34.5220,-7.10,1.14,2.08,-0.65,0.76,0.56
34.6040,-7.18,2.20,2.24,-1.26,0.55,0.83
34.6860,-6.32,3.45,1.84,-1.31,0.38,0.51
34.7680,-9.85,3.69,2.31,-0.78,-0.04,-0.12
34.8500,-12.63,2.55,0.04,-0.05,0.31,0.14
34.9320,-15.14,9.14,6.35,-0.33,-0.23,0.45
35.0140,-8.51,2.35,5.49,-0.53,0.19,0.10
35.0960,-8.87,4.20,4.47,-0.68,-0.52,0.06
35.1780,-6.32,1.65,2.71,-0.48,-0.12,0.09
35.2600,-7.45,2.67,2.47,-0.36,-0.08,0.38
35.3420,-9.38,3.22,2.71,0.19,0.36,0.32
35.4240,-12.12,2.16,1.10,0.46,0.20,0.00
35.5060,-10.67,5.73,6.79,-0.72,0.25,-0.78
35.5880,-11.14,7.53,5.57,-0.40,0.29,-0.55
35.6700,-8.04,1.22,2.31,0.37,0.66,0.33
35.7520,-7.61,3.37,1.69,-0.54,0.20,0.81
35.8340,-7.96,3.73,1.69,-0.37,0.09,0.23
35.9160,-10.94,2.04,0.00,-0.54,0.21,0.12
35.9980,-10.67,2.35,0.20,-0.80,0.32,0.18
36.0800,-10.87,6.43,5.26,0.34,-0.33,0.35
36.1620,-8.47,5.02,6.55,-0.11,-0.50,0.15
36.2440,-9.18,4.63,5.10,0.06,-0.76,-0.22
36.3260,-6.39,2.16,3.30,0.28,-0.68,-0.24
36.4080,-6.75,2.39,3.45,0.49,-0.60,-0.28
36.4900,-8.94,1.73,1.88,0.35,-0.42,-0.32
36.5720,-13.96,3.61,5.53,0.00,-0.47,-0.22
36.6540,-11.26,6.32,7.06,-0.89,0.49,-0.07
36.7360,-10.63,4.31,4.90,0.01,0.75,0.25
36.8180,-7.65,3.49,2.98,-0.37,0.74,0.32
36.9000,-3.57,2.04,1.53,-0.67,0.48,0.25
36.9820,-6.24,1.49,1.37,-0.76,0.36,0.27
37.0640,-9.57,2.79,0.86,-0.63,0.18,0.44
37.1460,-12.43,6.86,6.32,-0.28,0.21,0.34
37.2280,-10.71,2.82,6.12,0.40,0.05,-0.20
37.3100,-8.32,4.90,5.61,-0.65,-0.53,0.12
37.3920,-6.24,2.63,3.88,0.32,-0.47,-0.30
37.4740,-5.77,2.51,3.14,0.28,-0.27,-0.26
37.5560,-7.18,1.53,2.35,0.47,-0.40,-0.31
37.6380,-12.63,3.14,4.08,-0.06,-0.38,0.06
37.7200,-12.08,5.77,9.10,-0.18,-0.01,0.09
37.8020,-10.24,5.26,4.90,-0.47,0.82,0.15
37.8840,-10.16,2.79,4.35,-0.19,0.71,0.39
37.9660,-5.81,3.45,3.22,-0.39,0.60,0.39
38.0480,-4.90,1.84,1.65,-0.49,0.69,0.31
38.1300,-8.16,2.51,0.78,-0.62,0.51,0.23
38.2120,-12.08,3.61,1.29,-0.44,0.25,0.36
38.2940,-13.14,9.18,7.41,-0.03,-0.35,0.75
38.3760,-9.53,1.57,5.22,-0.19,-0.26,-0.32
38.4580,-7.65,4.71,4.00,-0.45,-0.26,0.14
38.5400,-5.84,1.77,3.14,-0.11,-0.30,-0.11
38.6220,-6.35,2.04,3.14,-0.29,0.01,0.31
38.7040,-8.20,2.43,3.73,-0.32,0.33,0.12
38.7860,-11.77,2.16,1.53,-0.24,0.46,0.16
38.8680,-12.98,4.35,5.65,-0.17,0.20,-0.13
38.9500,-10.12,3.84,6.43,-0.12,0.19,-0.72
39.0320,-9.92,2.94,4.75,-0.28,0.19,-0.06
39.1140,-6.55,2.79,2.79,0.00,0.30,0.22
39.1960,-8.04,2.43,2.12,-0.08,0.09,0.36
39.2780,-7.92,2.00,0.98,-0.22,0.19,0.17
39.3600,-11.57,2.51,0.51,-0.48,0.34,0.10
39.4420,-9.65,-1.37,-2.31,-0.14,0.47,-0.33
39.5240,-10.94,9.96,4.04,0.55,-0.20,0.56
39.6060,-6.67,0.27,4.51,-0.39,-0.17,-0.28
39.6880,-8.47,4.86,4.51,-0.08,-0.54,0.15
39.7700,-7.96,1.57,3.33,0.11,-0.27,-0.00
39.8520,-8.75,2.16,3.26,-0.15,-0.15,0.47
39.9340,-9.81,3.30,2.39,-0.01,0.33,0.29
40.0160,-11.06,1.73,1.77,0.12,0.25,0.01
40.0980,-11.02,5.45,4.59,-0.07,0.52,-0.28
40.1800,-10.63,6.20,6.35,-1.28,0.24,-0.64
40.2620,-9.14,3.18,3.49,0.29,0.62,0.13
40.3440,-8.08,3.02,2.31,-0.44,0.33,0.59
40.4260,-6.59,3.26,0.78,-0.49,0.13,0.21
40.5080,-8.98,1.73,0.63,-0.42,0.18,-0.11
40.5900,-10.32,1.96,0.12,-0.56,0.14,0.14
40.6720,-12.43,6.59,4.86,-0.43,-0.02,0.08
40.7540,-8.43,5.81,4.63,-0.07,-0.04,0.21
40.8360,-9.14,4.79,5.96,-0.16,-0.66,0.26
40.9180,-7.26,3.69,4.35,0.28,-0.74,-0.26
41.0000,-6.20,2.16,3.41,0.76,-0.61,-0.37
41.0820,-6.51,1.57,2.94,0.67,-0.47,-0.43
41.1640,-10.08,2.82,2.79,0.36,-0.55,-0.29
41.2460,-13.65,4.35,5.73,0.53,-0.27,-0.24
41.3280,-11.96,6.28,7.85,-0.64,0.14,-0.06
41.4100,-8.75,4.67,5.30,0.34,0.54,0.01
41.4920,-7.34,3.69,3.02,0.41,0.73,0.30
41.5740,-3.18,1.10,2.39,-0.08,-0.18,-0.20
41.6560,-5.92,1.57,1.77,-0.35,0.01,0.00
41.7380,-9.92,3.30,1.14,-0.10,-0.00,0.19
41.8200,-13.57,5.22,4.35,0.08,-0.08,0.01
41.9020,-12.91,6.86,5.65,0.36,-0.34,0.23
41.9840,-7.49,3.53,4.82,-0.36,-0.62,0.22
42.0660,-8.32,4.63,4.79,0.07,-0.49,-0.35
42.1480,-6.04,1.88,3.22,0.23,-0.29,-0.29
42.2300,-6.24,1.88,2.98,0.28,-0.28,-0.23
42.3120,-7.85,2.47,3.33,0.14,-0.48,-0.12
42.3940,-12.83,3.49,4.79,0.19,-0.48,0.08
42.4760,-13.26,6.39,7.57,-0.69,-0.02,0.04
42.5580,-7.61,5.18,4.24,-0.09,0.76,0.14
42.6400,-10.36,3.61,4.31,0.05,0.70,0.21
42.7220,-5.41,3.45,2.82,0.12,0.58,0.15
42.8040,-3.69,1.92,0.94,-0.20,0.75,0.08
42.8860,-6.51,2.12,1.45,-0.46,0.16,0.06
42.9680,-11.57,3.30,1.06,-0.14,-0.05,0.31
43.0500,-14.12,6.86,4.51,0.15,-0.20,0.26
43.1320,-10.12,2.35,3.57,0.33,0.09,-0.18
43.2140,-7.57,4.90,4.67,-0.59,-0.47,-0.02
43.2960,-7.92,2.98,3.88,0.32,-0.31,-0.32
43.3780,-5.45,1.80,2.75,-0.10,0.04,0.10
43.4600,-6.16,2.28,2.67,0.44,-0.15,-0.09
43.5420,-9.49,1.49,0.12,0.32,0.39,0.00
43.6240,-14.12,2.43,2.04,0.41,0.05,-0.17
43.7060,-11.73,4.08,8.32,-0.97,0.18,-1.12
43.7880,-10.67,4.31,4.67,-0.14,0.46,-0.09
43.8700,-5.45,1.65,2.04,0.44,0.54,0.19
43.9520,-6.83,2.20,2.00,-0.17,0.17,0.38
44.0340,-8.32,2.86,1.61,-0.23,0.13,0.05
44.1160,-10.59,3.30,1.84,-0.31,0.19,-0.16
44.1980,-12.59,1.41,-1.33,0.03,0.27,0.12
44.2800,-13.10,8.87,10.24,0.03,-0.05,0.19
44.3620,-5.77,1.49,2.75,0.51,0.41,-0.28
44.4440,-8.32,4.35,4.16,-0.61,-0.60,0.23
44.5260,-6.98,2.79,3.41,-0.07,-0.35,-0.17
44.6080,-7.45,2.35,2.90,0.09,-0.06,0.22
44.6900,-8.98,2.71,2.59,0.18,0.01,0.27
44.7720,-11.34,2.63,0.90,0.55,0.09,0.20
44.8540,-12.47,4.39,2.67,0.26,-0.15,-0.08
44.9360,-9.81,3.18,6.59,-0.95,-0.06,-0.71
45.0180,-9.96,5.57,4.20,-0.61,0.50,-0.58
45.1000,-9.06,2.24,3.26,0.04,0.46,0.25
45.1820,-7.26,2.82,2.28,-0.54,0.32,0.45
45.2640,-7.61,2.51,1.57,-0.27,-0.01,0.26
45.3460,-8.39,1.96,0.82,-0.40,-0.08,0.02
45.4280,-13.49,3.88,2.20,-0.42,-0.10,-0.04
45.5100,-12.59,1.84,4.24,-0.04,0.36,-0.00
45.5920,-7.18,4.55,1.96,0.58,0.58,0.07
45.6740,-8.87,4.16,5.10,-0.60,-0.49,0.16
45.7560,-6.90,3.77,4.24,0.03,-0.50,-0.15
45.8380,-7.61,2.16,4.04,0.23,-0.48,0.03
45.9200,-8.94,2.79,3.06,0.35,-0.44,-0.23
46.0020,-9.69,2.28,3.10,0.45,-0.43,-0.23
46.0840,-12.63,2.55,3.14,0.66,-0.22,-0.23
46.1660,-13.22,7.37,8.36,-0.82,-0.18,0.12
46.2480,-8.87,6.12,5.30,0.06,0.23,0.04
46.3300,-8.83,4.00,4.08,0.01,0.69,0.53
46.4120,-5.30,3.22,2.35,0.08,0.44,0.34
46.4940,-5.84,1.49,0.94,-0.10,0.52,0.15
46.5760,-8.00,3.69,1.29,-0.70,0.26,0.42
46.6580,-11.45,4.16,1.96,-0.11,0.14,0.13
46.7400,-10.47,6.39,5.18,0.37,0.16,0.26
46.8220,-8.55,3.96,5.53,-0.20,-0.62,0.00
46.9040,-8.24,4.75,4.79,-0.05,-0.58,-0.18
46.9860,-6.04,2.86,3.88,0.27,-0.52,-0.38
47.0680,-6.55,2.39,3.41,0.57,-0.39,-0.22
47.1500,-7.81,2.08,3.26,0.24,-0.42,-0.17
47.2320,-10.55,2.94,3.73,0.15,-0.29,0.04
47.3140,-12.36,3.33,7.69,0.22,-0.15,-0.00
47.3960,-10.36,5.45,6.35,-0.73,0.36,-0.19
47.4780,-9.85,4.20,5.14,0.10,0.63,0.09
47.5600,-5.81,3.33,2.35,-0.09,0.97,0.37
47.6420,-3.18,1.37,1.53,-0.15,0.15,-0.10
47.7240,-7.30,2.75,2.43,-0.51,0.07,0.03
47.8060,-11.65,3.96,1.73,-0.13,0.05,0.07
47.8880,-13.34,4.20,3.88,0.01,-0.03,0.15
47.9700,-11.69,6.43,5.33,0.21,-0.29,0.28
48.0520,-8.24,3.61,5.45,-0.74,-0.63,-0.04
48.1340,-8.12,4.00,4.59,0.22,-0.37,-0.25
48.2160,-6.08,2.59,3.26,0.20,-0.23,-0.25
48.2980,-5.81,2.35,3.73,0.52,-0.38,-0.16
48.3800,-9.10,2.47,3.37,0.33,-0.55,0.02
48.4620,-11.65,2.08,3.06,0.07,-0.28,0.20
48.5440,-13.89,5.30,5.69,-0.43,-0.07,-0.15
48.6260,-8.24,5.26,5.22,-0.49,0.50,0.30
48.7080,-9.10,3.26,4.31,-0.68,0.92,0.31
48.7900,-5.14,3.26,2.98,-0.71,0.74,0.51
48.8720,-4.90,3.26,2.35,-0.57,0.54,0.31
48.9540,-6.79,3.06,2.12,-0.48,0.59,-0.13
49.0360,-10.94,2.04,1.53,-0.32,0.32,-0.05
49.1180,-11.22,0.51,0.16,-0.40,0.72,-0.03
49.2000,-12.75,5.10,2.98,0.23,0.18,0.03
49.2820,-8.12,3.14,4.31,-0.08,0.39,-0.11
49.3640,-7.69,4.24,3.88,-0.34,-0.52,0.26
49.4460,-7.06,2.90,3.49,0.02,-0.41,-0.10
49.5280,-8.00,2.24,3.02,-0.11,-0.11,0.19
49.6100,-8.98,2.28,2.43,0.04,0.15,0.14
49.6920,-11.65,2.20,2.00,0.32,-0.01,0.10
49.7740,-11.53,3.41,2.63,0.30,0.02,-0.07
49.8560,-8.75,3.61,5.26,-0.91,0.30,-0.90
49.9380,-11.26,6.16,4.94,-0.35,0.22,-0.51
50.0200,-7.81,2.55,2.82,0.33,0.39,0.31
50.1020,-6.75,2.16,1.22,-0.02,0.17,0.47
50.1840,-7.41,2.24,1.02,-0.25,-0.08,0.20
50.2660,-9.85,1.96,1.14,-0.47,-0.13,-0.30
50.3480,-12.20,3.41,0.12,0.00,-0.18,0.01
50.4300,-12.24,8.79,7.61,0.18,0.02,0.16
50.5120,-7.61,2.51,5.41,0.71,-0.06,-0.09
50.5940,-7.77,4.28,4.28,-0.23,-0.47,0.06
50.6760,-7.10,2.67,4.00,0.55,-0.62,-0.29
50.7580,-8.90,2.75,3.57,0.29,-0.47,-0.07
50.8400,-8.36,2.08,2.35,0.53,-0.16,-0.47
50.9220,-9.57,2.47,2.82,0.32,-0.42,-0.18
51.0040,-13.22,2.51,3.80,0.73,-0.44,-0.13
51.0860,-13.69,8.04,8.83,-1.05,-0.24,0.09
51.1680,-8.90,4.94,5.18,0.03,0.30,0.20
51.2500,-8.51,3.69,3.49,-0.24,0.86,0.44
51.3320,-5.84,3.45,2.35,0.17,0.38,0.22
51.4140,-4.79,2.04,0.94,-0.13,0.62,0.08
51.4960,-8.51,2.51,1.41,-0.47,0.02,0.15
51.5780,-13.14,3.69,2.59,-0.17,0.16,0.30
51.6600,-11.14,6.39,4.59,0.29,-0.04,0.50
51.7420,-7.61,3.45,5.14,-0.45,-0.27,0.34
51.8240,-8.08,5.57,5.45,-0.18,-0.56,-0.15
51.9060,-6.24,2.12,3.73,0.60,-0.58,-0.42
51.9880,-6.08,1.65,2.67,0.70,-0.28,-0.31
52.0700,-7.18,1.92,2.94,0.36,-0.28,-0.31
52.1520,-12.12,2.75,4.39,-0.26,-0.43,0.22
52.2340,-12.75,5.88,7.30,-0.40,0.02,0.11
52.3160,-8.79,5.41,5.30,-0.59,0.71,0.14
52.3980,-9.45,4.00,4.98,0.00,0.66,0.21
52.4800,-5.84,3.33,3.14,0.08,0.66,0.21
52.5620,-4.24,1.61,2.24,-0.30,0.41,-0.10
52.6440,-5.96,2.24,1.57,-0.49,0.41,-0.02
52.7260,-11.30,2.35,0.78,0.13,-0.13,0.18
52.8080,-14.59,4.43,4.16,-0.48,-0.54,0.63
52.8900,-12.67,3.06,3.30,0.28,-0.58,-0.04
52.9720,-9.65,4.75,5.92,-0.33,-0.57,0.11
53.0540,-7.96,4.24,3.88,0.03,-0.14,-0.24
53.1360,-6.59,2.16,4.20,-0.14,-0.43,-0.02
53.2180,-5.77,1.92,2.35,0.00,-0.12,-0.10
53.3000,-6.55,2.82,2.98,0.17,0.03,-0.10
53.3820,-11.10,1.29,0.55,0.63,0.26,0.10
53.4640,-15.02,3.33,4.55,0.44,-0.23,-0.17
53.5460,-11.81,4.94,5.88,-1.39,0.25,-0.95
53.6280,-10.04,5.84,6.12,-0.52,0.46,-0.36
53.7100,-6.67,2.28,3.06,0.47,0.49,0.08
53.7920,-6.98,2.86,2.28,-0.40,0.46,0.33
53.8740,-8.16,3.57,2.35,-0.15,0.22,0.08
53.9560,-9.06,2.00,1.37,-0.16,0.17,0.04
54.0380,-11.45,2.90,0.67,-0.23,-0.02,-0.08
54.1200,-13.02,5.18,5.26,-0.12,-0.12,0.05
54.2020,-6.28,6.86,3.10,0.21,0.61,0.19
54.2840,-7.88,2.75,3.49,0.72,-0.50,-0.19
54.3660,-6.63,3.77,3.26,0.09,-0.71,0.01
54.4480,-7.41,1.92,3.33,0.38,-0.54,-0.21
54.5300,-7.77,2.51,2.94,0.05,-0.16,0.09
54.6120,-10.12,3.45,3.02,0.34,0.34,0.25
54.6940,-12.24,2.00,1.88,0.17,-0.03,0.01
54.7760,-11.96,5.53,3.02,-0.46,0.12,0.05
54.8580,-9.73,5.41,6.47,-1.37,0.21,-0.56
54.9400,-9.41,5.30,4.94,-0.71,0.42,0.24
55.0220,-4.59,1.96,1.06,0.21,0.45,0.45
55.1040,-6.24,2.35,1.73,-0.01,0.03,0.25
55.1860,-9.81,2.00,1.26,-0.17,0.14,-0.12
55.2680,-13.42,2.24,0.27,-0.36,0.18,0.21
55.3500,-10.47,0.47,-2.28,-0.52,0.50,-0.11
55.4320,-12.94,4.94,3.53,1.60,-0.07,0.21
55.5140,-9.85,2.08,4.82,-0.21,-0.62,-0.21
55.5960,-8.28,4.51,4.59,-0.39,-0.65,0.15
55.6780,-6.86,2.31,3.18,0.15,-0.33,-0.03
55.7600,-7.49,2.59,3.10,0.19,-0.06,0.24
55.8420,-10.24,3.37,2.98,0.63,0.06,0.23
55.9240,-12.79,1.29,1.41,0.47,-0.01,-0.10
56.0060,-10.59,5.57,2.86,-0.40,0.23,-0.15
56.0880,-9.41,5.45,6.16,-0.93,0.11,-0.68
56.1700,-9.92,4.04,4.51,0.11,0.32,0.20
56.2520,-6.24,1.49,1.69,-0.34,0.43,0.37
56.3340,-7.18,2.51,1.96,-0.42,0.21,0.39
56.4160,-8.47,2.55,1.10,-0.44,0.09,0.06
56.4980,-12.04,3.30,1.33,-0.29,0.14,-0.05
56.5800,-13.93,0.00,-1.33,-0.05,-0.00,0.03
56.6620,-13.96,6.24,2.43,0.95,-0.83,0.44
56.7440,-8.90,3.26,4.55,0.17,-0.34,-0.06
56.8260,-8.75,4.04,4.24,-0.24,-0.70,0.04
56.9080,-6.75,2.20,3.06,0.12,-0.42,-0.15
56.9900,-7.22,2.20,2.79,-0.07,-0.10,0.31
57.0720,-9.57,3.45,3.26,0.37,-0.14,0.22
57.1540,-12.83,1.69,1.49,0.46,-0.08,-0.03
57.2360,-12.55,3.02,2.90,0.53,0.01,-0.09
57.3180,-8.67,2.98,6.75,-1.38,0.17,-0.74
57.4000,-9.73,5.96,4.04,-0.32,0.62,-0.28
57.4820,-7.10,2.35,2.35,-0.07,0.54,0.38
57.5640,-6.98,2.39,1.45,-0.47,0.33,0.59
57.6460,-6.47,1.96,0.63,-0.63,0.20,0.26
57.7280,-9.81,3.92,2.86,-0.85,0.10,-0.26
57.8100,-13.38,1.61,-1.65,0.22,0.24,0.09
57.8920,-14.24,12.55,12.67,-0.53,-0.06,0.54
57.9740,-5.92,2.00,2.51,0.35,0.54,-0.28
58.0560,-8.39,4.51,4.59,-0.43,-0.70,0.11
58.1380,-6.04,2.35,3.10,0.06,-0.39,-0.22
58.2200,-6.90,2.43,2.86,0.13,-0.27,0.22
58.3020,-9.49,3.06,2.31,0.68,-0.05,0.21
58.3840,-12.12,1.18,0.27,0.49,0.11,0.04
58.4660,-12.47,5.92,4.47,0.30,-0.11,-0.30
58.5480,-9.69,4.35,6.28,-1.18,0.04,-0.96
58.6300,-11.18,3.84,4.39,0.46,0.21,-0.02
58.7120,-6.83,2.20,1.80,-0.29,0.37,0.44
58.7940,-6.59,2.00,1.77,-0.21,0.00,0.46
58.8760,-7.88,1.57,0.24,-0.52,-0.00,0.17
58.9580,-15.14,3.37,3.10,-0.48,-0.27,-0.30
59.0400,-13.81,1.49,3.88,0.11,0.70,-0.02
59.1220,-4.63,4.04,2.28,0.48,1.00,0.10
59.2040,-7.92,4.71,4.67,-0.42,-0.59,0.09
59.2860,-7.18,3.22,3.41,0.24,-0.45,-0.32
59.3680,-7.22,1.41,3.06,0.31,-0.34,-0.08
59.4500,-8.94,2.63,2.28,0.45,-0.27,0.09
59.5320,-9.30,2.28,1.92,0.66,-0.18,0.17
59.6140,-12.43,2.47,1.57,0.09,0.11,-0.21
59.6960,-8.04,5.37,6.98,-1.05,0.18,-0.87
59.7780,-11.14,6.12,5.61,-0.49,0.18,-0.56
59.8600,-7.14,1.73,2.16,0.14,0.50,0.44
59.9420,-6.79,2.20,1.53,-0.19,0.19,0.64
60.0240,-5.92,2.51,0.71,-0.43,0.03,0.31
60.1060,-11.06,3.14,1.41,-0.59,0.06,-0.17
60.1880,-13.22,0.98,-1.14,-0.26,0.02,-0.12
60.2700,-13.38,12.51,3.92,0.87,-1.20,0.52
60.3520,-7.73,0.43,4.43,0.64,-0.18,-0.50
60.4340,-7.88,4.94,4.63,-0.09,-0.92,0.02
60.5160,-6.39,1.80,3.41,0.66,-0.68,-0.35
60.5980,-8.39,2.47,2.67,0.44,-0.29,0.15
60.6800,-9.49,2.24,1.92,0.72,0.31,-0.09
60.7620,-12.36,1.69,0.78,0.52,-0.02,-0.07
60.8440,-10.55,6.08,4.04,0.31,0.02,-0.40
60.9260,-11.41,5.65,7.69,-0.92,0.06,-1.11
61.0080,-10.08,2.43,3.80,1.03,0.33,0.30
61.0900,-6.51,1.84,0.63,0.21,0.21,0.47
61.1720,-5.92,1.65,0.63,-0.09,-0.36,0.22
61.2540,-9.92,2.28,0.86,-0.20,-0.19,-0.02
61.3360,-13.38,4.94,2.39,-0.21,-0.17,-0.11
61.4180,-14.79,3.77,1.61,1.02,0.01,-0.41
61.5000,-9.92,5.41,6.00,0.62,-0.21,0.36
61.5820,-7.61,3.61,3.41,0.24,-0.72,-0.18
61.6640,-7.49,1.96,2.79,0.56,-0.62,-0.26
61.7460,-7.22,2.08,2.43,0.18,-0.19,0.07
61.8280,-9.81,3.02,2.47,0.67,0.19,0.25
61.9100,-12.47,1.33,0.71,0.54,-0.01,-0.07
61.9920,-10.63,5.41,4.20,-0.17,0.33,-0.38
62.0740,-10.79,6.16,6.79,-1.18,0.29,-0.78
62.1560,-10.08,3.57,4.08,0.33,0.29,0.34
62.2380,-6.16,1.73,0.82,-0.16,0.15,0.45
62.3200,-5.65,1.77,0.63,-0.57,-0.08,0.36
62.4020,-9.61,2.90,1.26,-0.36,-0.10,-0.26
62.4840,-13.06,3.53,-0.27,-0.26,0.06,0.04
62.5660,-15.18,7.65,8.51,0.16,0.09,0.12
62.6480,-5.81,2.90,2.67,0.73,0.40,-0.19
62.7300,-8.08,3.77,4.55,-0.01,-0.91,-0.16
62.8120,-5.37,2.39,2.82,0.49,-0.47,-0.30
62.8940,-7.88,1.92,3.49,0.56,-0.44,0.03
62.9760,-9.02,1.77,1.26,0.76,0.21,-0.10
63.0580,-12.91,2.47,1.18,0.62,-0.24,0.16
63.1400,-12.83,3.14,3.45,0.50,-0.13,-0.31
63.2220,-10.00,4.35,6.08,-1.10,0.11,-1.04
63.3040,-11.57,5.26,5.14,0.08,0.30,0.00
63.3860,-6.28,1.77,1.57,0.31,0.39,0.30
63.4680,-7.10,1.96,1.26,0.02,0.03,0.52
63.5500,-7.57,2.39,0.63,-0.18,0.04,0.17
63.6320,-11.57,2.90,1.77,-0.59,0.07,0.07
63.7140,-11.96,-1.22,-2.24,-0.04,0.11,-0.10
63.7960,-14.47,10.98,6.94,0.53,-0.80,0.72
63.8780,-6.00,1.26,3.22,0.28,-0.10,-0.46
63.9600,-8.32,5.06,4.71,-0.10,-0.86,0.09
64.0420,-6.20,2.31,3.45,0.47,-0.56,-0.36
64.1240,-8.16,2.28,2.47,0.52,-0.27,0.07
64.2060,-9.49,1.77,2.00,0.57,0.09,-0.01
64.2880,-12.59,2.16,0.82,0.52,-0.01,-0.04
64.3700,-9.85,6.83,4.71,-0.57,0.28,-0.53
64.4520,-10.40,6.63,6.79,-0.53,0.17,-0.87
64.5340,-8.75,1.96,3.33,0.61,0.45,0.35
64.6160,-6.35,2.00,1.45,-0.19,0.31,0.55
64.6980,-6.20,2.47,1.06,-0.38,-0.11,0.35
64.7800,-10.40,2.08,0.78,-0.29,0.04,-0.26
64.8620,-13.34,2.39,-0.24,-0.18,0.03,0.11
64.9440,-14.32,7.57,10.36,-0.14,0.14,0.40
65.0260,-5.57,2.63,2.16,0.70,0.46,-0.13
65.1080,-8.28,3.65,4.51,-0.41,-0.82,-0.10
65.1900,-5.69,2.51,2.67,0.25,-0.47,-0.24
65.2720,-7.61,2.28,2.86,0.29,-0.23,0.04
65.3540,-8.71,2.47,2.20,0.53,0.08,0.14
65.4360,-12.59,1.41,0.78,0.47,0.06,0.05
65.5180,-12.36,5.81,4.08,-0.05,-0.19,-0.18
65.6000,-9.22,4.55,6.28,-0.79,0.19,-0.99
65.6820,-12.91,5.02,5.14,0.04,0.11,-0.00
65.7640,-5.69,2.24,1.18,0.25,0.17,0.36
65.8460,-6.00,2.20,1.06,0.13,-0.12,0.36
65.9280,-8.94,2.04,0.63,-0.06,-0.02,0.07
66.0100,-12.87,2.63,0.78,-0.43,0.19,-0.06
66.0920,-9.81,0.51,0.63,-0.07,0.29,-0.10
66.1740,-9.96,6.08,2.86,1.26,0.29,0.47
66.2560,-8.75,3.02,4.71,-0.14,-0.47,-0.26
66.3380,-7.96,4.35,3.88,0.21,-0.65,-0.30
66.4200,-6.83,1.41,2.90,0.62,-0.32,-0.26
66.5020,-8.67,1.77,2.20,0.65,-0.22,0.10
66.5840,-9.73,2.35,2.16,0.51,-0.13,0.17
66.6660,-12.28,2.59,1.33,0.31,0.00,-0.22
66.7480,-8.98,6.51,6.24,-0.42,0.26,-0.54
66.8300,-12.51,6.24,7.18,-0.53,0.08,-0.62
66.9120,-6.86,1.84,2.08,0.48,0.47,0.45
66.9940,-5.69,1.73,0.86,0.09,0.15,0.66
67.0760,-5.96,2.63,0.51,-0.46,0.14,0.26
67.1580,-12.55,2.47,1.73,-0.33,0.02,-0.31
67.2400,-13.49,1.26,-0.94,-0.24,0.20,0.03
67.3220,-15.02,8.71,4.47,0.74,-0.22,0.30
67.4040,-9.26,3.22,4.98,0.37,-0.19,-0.08
67.4860,-7.49,3.77,3.69,-0.15,-0.77,-0.03
67.5680,-6.79,2.08,3.10,0.31,-0.61,-0.24
67.6500,-7.85,2.55,2.79,0.15,-0.16,0.15
67.7320,-9.69,2.67,2.31,0.53,0.37,-0.03
67.8140,-12.40,1.69,1.02,0.47,-0.11,0.04
67.8960,-11.14,5.73,3.69,-0.10,0.23,-0.23
67.9780,-9.41,5.45,6.51,-0.95,0.18,-0.93
68.0600,-10.90,4.79,4.71,0.65,0.10,0.05
68.1420,-6.63,1.45,1.22,0.28,0.08,0.37
68.2240,-5.92,2.31,1.49,0.11,-0.25,0.30
68.3060,-8.71,2.04,1.29,-0.15,-0.05,-0.01
68.3880,-12.63,3.69,0.71,-0.40,0.06,-0.08
68.4700,-11.30,8.00,6.90,-0.11,0.08,-0.06
68.5520,-5.14,3.96,2.67,0.76,0.87,-0.10
68.6340,-8.28,3.77,4.63,0.09,-0.52,0.07
68.7160,-6.51,4.00,3.53,0.24,-0.54,-0.29
68.7980,-6.94,1.49,3.26,0.64,-0.39,-0.12
68.8800,-7.88,2.67,2.75,0.48,-0.14,0.09
68.9620,-9.73,1.45,1.49,0.70,0.16,0.02
69.0440,-13.14,2.63,1.73,0.36,-0.16,-0.13
69.1260,-10.32,4.31,4.12,0.94,-0.19,-0.29
69.2080,-11.10,4.86,7.30,-1.19,-0.14,-1.08
69.2900,-10.04,4.08,3.69,0.39,0.53,0.20
69.3720,-7.73,2.08,1.92,-0.19,0.30,0.38
69.4540,-5.84,0.90,1.02,-0.39,-0.04,0.43
69.5360,-8.24,1.80,0.31,-0.68,0.05,0.21
69.6180,-14.47,3.65,1.69,-0.38,-0.37,0.02
69.7000,-10.24,4.43,5.53,-0.54,0.70,-0.12
69.7820,-8.90,4.63,2.31,1.01,0.28,0.16
69.8640,-9.53,4.94,5.41,-0.55,-0.73,-0.13
69.9460,-6.59,3.06,3.26,0.39,-0.66,-0.22
70.0280,-7.14,2.20,3.65,0.37,-0.51,-0.07
70.1100,-9.41,2.00,1.96,0.66,-0.16,0.10
70.1920,-12.16,2.28,0.55,0.39,-0.19,-0.04
70.2740,-12.75,5.02,4.47,0.29,-0.01,-0.59
70.3560,-11.02,3.61,6.71,-0.63,0.05,-1.09
70.4380,-10.98,4.55,5.14,0.62,0.21,0.10
70.5200,-6.47,1.65,1.37,0.64,0.26,0.25
70.6020,-4.98,1.61,1.02,-0.04,-0.25,0.30
70.6840,-9.57,2.59,0.51,0.03,-0.09,-0.10
70.7660,-14.59,3.41,0.31,-0.15,-0.08,0.01
70.8480,-16.59,10.40,12.51,-0.03,-0.15,0.36
70.9300,-6.04,2.08,2.94,0.84,0.55,-0.25
71.0120,-8.32,4.55,4.55,-0.21,-0.85,-0.09
71.0940,-5.57,2.71,2.86,0.60,-0.52,-0.39
71.1760,-7.14,1.69,2.67,0.59,-0.38,0.06
71.2580,-9.49,2.39,2.08,0.76,0.19,0.08
71.3400,-12.98,1.53,0.35,0.45,-0.10,0.06
71.4220,-12.63,4.12,3.96,0.40,-0.10,-0.26
71.5040,-9.61,4.94,6.16,-1.53,0.13,-1.15
71.5860,-11.53,4.51,4.12,0.23,0.31,-0.04
71.6680,-7.30,2.04,1.65,-0.27,0.57,0.35
71.7500,-5.84,1.92,1.22,-0.29,0.23,0.72
71.8320,-7.65,1.65,0.12,-0.45,0.18,0.14
71.9140,-13.45,2.47,2.00,-0.55,-0.23,-0.01
71.9960,-12.16,3.37,4.98,-0.15,0.31,-0.01
72.0780,-4.82,4.94,1.84,0.16,0.82,0.13
72.1600,-8.55,4.20,4.67,-0.07,-0.71,0.04
72.2420,-6.98,3.41,3.53,0.13,-0.63,-0.27
72.3240,-6.79,1.33,3.26,0.43,-0.38,-0.09
72.4060,-8.32,2.90,2.51,0.38,-0.08,0.04
72.4880,-10.40,1.88,1.88,0.60,-0.23,0.18
72.5700,-11.65,3.45,1.73,0.27,-0.06,-0.30
72.6520,-8.24,3.65,6.55,-1.00,0.13,-0.84
72.7340,-11.45,6.79,6.28,-0.52,0.30,-0.41
72.8160,-7.37,2.39,2.55,0.21,0.44,0.52
72.8980,-6.32,2.31,1.65,0.08,0.00,0.57
72.9800,-6.47,3.10,1.29,-0.13,-0.17,0.01
73.0620,-12.04,2.12,0.94,0.04,-0.19,-0.30
73.1440,-12.32,2.04,-0.47,-0.13,0.05,-0.12
73.2260,-15.46,9.53,9.89,-0.11,0.03,0.30
73.3080,-5.22,2.98,2.98,0.90,0.31,-0.42
73.3900,-8.08,4.31,4.31,0.33,-0.87,-0.12
73.4720,-5.73,3.22,3.41,0.69,-0.54,-0.49
73.5540,-8.67,1.69,2.75,0.88,-0.48,-0.16
73.6360,-9.02,1.96,1.53,0.66,0.01,-0.16
73.7180,-12.32,2.71,1.37,0.67,-0.22,0.13
73.8000,-12.08,3.14,1.80,0.65,0.03,-0.29
73.8820,-10.00,4.24,7.37,-1.29,0.28,-0.95
73.9640,-11.45,5.81,4.94,0.09,0.44,-0.03
74.0460,-6.39,2.16,1.77,0.40,0.43,0.29
74.1280,-5.88,1.69,0.75,0.25,0.03,0.55
74.2100,-7.53,2.47,0.08,-0.26,-0.06,0.12
74.2920,-13.38,3.26,1.80,-0.47,-0.01,-0.13
74.3740,-12.71,2.31,5.33,0.21,0.34,-0.03
74.4560,-7.53,5.92,1.92,0.68,0.66,0.19
74.5380,-8.59,3.84,4.82,-0.52,-0.51,0.01
74.6200,-7.02,3.41,3.77,-0.00,-0.61,-0.09
74.7020,-7.34,1.69,3.26,0.29,-0.38,-0.06
74.7840,-8.08,2.47,1.88,0.30,-0.02,0.14
74.8660,-11.85,2.24,1.61,0.51,-0.20,0.17
74.9480,-12.16,2.24,1.73,0.27,0.11,-0.26
75.0300,-8.71,4.79,6.75,-1.68,0.33,-0.84
75.1120,-10.94,6.55,5.02,-0.10,0.28,-0.23
75.1940,-6.67,1.57,1.80,-0.11,0.41,0.51
75.2760,-6.28,2.31,1.73,-0.39,0.06,0.65
75.3580,-7.65,2.75,1.22,-0.49,0.08,0.20
75.4400,-13.89,3.41,2.63,-0.39,-0.20,-0.24
75.5220,-11.53,1.37,5.33,0.33,0.85,-0.14
75.6040,-6.94,3.88,1.84,0.38,0.45,0.08
75.6860,-9.69,4.43,5.53,-0.67,-0.59,0.06
75.7680,-6.98,2.55,3.02,0.06,-0.45,-0.21
75.8500,-6.08,1.88,2.90,0.05,-0.24,0.05
75.9320,-8.39,2.71,2.51,0.64,-0.26,0.18
76.0140,-12.24,1.26,0.20,0.86,-0.08,-0.01
76.0960,-13.42,6.04,4.12,-0.07,-0.18,-0.21
76.1780,-9.73,3.69,6.75,-1.07,0.20,-1.09
76.2600,-11.89,4.71,4.63,0.09,0.34,-0.07
76.3420,-5.88,2.35,1.33,0.00,0.44,0.44
76.4240,-6.24,2.20,1.10,-0.05,0.05,0.52
76.5060,-8.20,2.08,0.51,-0.23,-0.14,0.12
76.5880,-14.20,4.20,1.77,-0.56,-0.22,-0.31
76.6700,-9.77,0.94,3.45,0.22,0.63,-0.20
76.7520,-8.63,5.33,2.98,1.13,0.79,0.58
76.8340,-7.96,2.71,4.82,-0.56,-0.46,-0.23
76.9160,-7.69,3.84,3.57,0.18,-0.38,-0.05
76.9980,-7.26,1.33,2.51,0.37,-0.26,0.08
77.0800,-8.75,3.06,2.94,0.34,-0.28,0.45
77.1620,-11.73,1.37,0.67,0.60,0.04,-0.06
77.2440,-11.89,3.22,1.73,0.17,0.02,-0.13
77.3260,-5.92,2.43,6.79,-1.28,0.72,-0.77
77.4080,-13.89,6.83,5.49,-0.48,0.26,-0.22
77.4900,-6.94,1.22,1.80,-0.40,0.79,0.45
77.5720,-6.24,1.33,1.45,-0.68,0.29,0.87
77.6540,-6.79,3.06,0.67,-0.99,0.07,0.40
77.7360,-13.85,2.55,2.47,-0.39,-0.12,-0.19
77.8180,-11.89,2.12,6.12,-0.14,0.58,-0.12
77.9000,-4.90,4.67,1.61,0.38,0.85,0.20
77.9820,-9.22,4.47,4.90,-0.78,-0.69,0.04
78.0640,-6.67,2.55,2.94,-0.11,-0.34,-0.06
78.1460,-6.00,1.65,2.82,-0.10,-0.32,0.17
78.2280,-10.40,3.49,3.69,0.57,0.10,0.37
78.3100,-12.83,1.22,0.59,0.43,0.06,-0.14
78.3920,-13.06,4.16,3.69,0.29,-0.04,-0.18
78.4740,-10.04,4.43,6.24,-1.82,-0.08,-0.94
78.5560,-11.65,5.22,4.71,0.18,0.25,-0.10
78.6380,-7.06,1.65,1.84,-0.51,0.42,0.43
78.7200,-6.32,1.73,1.22,-0.59,0.04,0.63
78.8020,-7.85,2.63,0.75,-0.72,0.01,0.17
78.8840,-15.38,3.18,2.59,-0.33,-0.22,0.02
78.9660,-12.32,3.41,4.12,-0.47,0.75,-0.04
79.0480,-6.04,3.88,3.18,0.60,0.71,0.05
79.1300,-8.04,3.69,4.59,-0.86,-0.57,0.02
79.2120,-6.90,2.55,2.75,0.02,-0.10,-0.06
79.2940,-6.63,1.92,2.71,-0.05,-0.22,0.24
79.3760,-9.61,3.06,3.10,0.48,-0.19,0.35
79.4580,-12.71,1.33,0.27,0.57,0.01,-0.10
79.5400,-12.91,4.20,3.80,0.24,-0.06,-0.22
79.6220,-8.90,3.92,6.32,-1.63,0.03,-1.07
79.7040,-12.20,4.98,4.86,0.27,0.27,0.03
79.7860,-7.10,1.73,1.69,-0.23,0.46,0.42
79.8680,-5.88,1.84,1.18,-0.30,0.16,0.56
79.9500,-8.00,2.43,0.82,-0.49,0.03,0.21
80.0320,-13.96,3.30,1.84,-0.42,0.01,-0.12
80.1140,-10.28,1.96,4.55,-0.18,0.53,0.07
80.1960,-7.26,4.47,2.79,0.77,0.47,0.20
80.2780,-8.98,3.14,4.94,-0.39,-0.46,0.06
80.3600,-7.65,3.77,3.88,-0.11,-0.66,-0.10
80.4420,-7.10,1.84,3.37,0.11,-0.34,0.01
80.5240,-8.24,3.10,3.02,0.25,-0.06,0.12
80.6060,-10.08,2.31,2.39,0.42,0.14,0.14
80.6880,-12.55,2.59,1.37,0.46,0.16,-0.17
80.7700,-8.16,4.59,4.67,-0.36,0.31,-0.25
80.8520,-11.38,5.77,6.51,-0.92,-0.03,-0.68
80.9340,-8.00,1.18,2.39,0.05,0.90,0.44
81.0160,-7.30,1.80,2.00,-0.74,0.41,0.56
81.0980,-6.83,2.39,1.57,-0.72,0.13,0.40
81.1800,-9.26,3.10,1.26,-0.73,0.01,0.24
81.2620,-13.14,1.61,0.43,-0.04,0.13,0.06
81.3440,-15.18,6.04,6.04,-0.35,0.49,0.48
81.4260,-6.12,4.04,3.37,0.14,0.83,0.18
81.5080,-7.81,3.33,3.69,-0.40,-0.66,-0.03
81.5900,-6.83,2.55,3.30,-0.14,-0.37,-0.06
81.6720,-7.06,2.31,2.94,-0.16,-0.13,0.16
81.7540,-8.43,2.59,2.16,0.13,0.15,0.04
81.8360,-11.69,3.02,3.10,0.44,-0.29,0.28
81.9180,-13.38,2.43,1.96,0.53,0.12,-0.21
82.0000,-9.89,4.04,5.10,-1.64,0.26,-0.84
82.0820,-10.71,5.96,4.59,-0.89,0.52,-0.34
82.1640,-6.90,1.77,2.24,-0.02,0.67,0.35
82.2460,-6.71,2.20,1.69,-0.64,0.37,0.60
82.3280,-6.35,2.79,1.02,-0.58,0.05,0.19
82.4100,-11.57,2.51,1.65,-0.50,0.03,-0.16
82.4920,-13.89,1.65,-1.33,-0.19,0.13,-0.01
82.5740,-14.63,9.49,12.75,0.53,-0.74,0.88
82.6560,-6.75,2.31,3.80,0.41,0.14,-0.22
82.7380,-7.96,3.96,4.08,-0.19,-0.87,-0.06
82.8200,-6.24,2.98,3.02,0.32,-0.53,-0.29
82.9020,-7.85,1.73,2.82,0.37,-0.28,0.08
82.9840,-8.94,3.10,2.43,0.41,0.10,0.06
83.0660,-12.59,1.77,1.22,0.59,-0.08,0.06
83.1480,-13.30,4.39,3.65,0.46,-0.04,-0.24
83.2300,-9.49,3.37,6.08,-1.35,-0.06,-0.85
83.3120,-10.47,5.92,4.55,-0.30,0.42,-0.37
83.3940,-6.79,1.88,2.00,-0.12,0.38,0.43
83.4760,-6.28,2.47,1.84,-0.41,0.05,0.65
83.5580,-6.94,2.67,1.26,-0.50,0.02,0.29
83.6400,-12.67,3.06,2.04,-0.36,0.09,-0.22
83.7220,-13.14,0.00,0.00,-0.08,0.20,-0.03
83.8040,-14.12,7.26,2.04,0.73,-0.20,0.30
83.8860,-10.00,2.79,5.30,0.13,-0.34,0.01
83.9680,-7.37,4.08,3.73,-0.31,-0.63,0.06
84.0500,-6.63,2.71,4.00,0.20,-0.57,-0.16
84.1320,-8.16,2.82,3.30,0.26,-0.16,0.09
84.2140,-9.65,2.63,2.35,0.45,0.19,-0.01
84.2960,-12.51,1.77,0.98,0.57,-0.03,-0.04
84.3780,-11.34,5.30,3.77,0.16,0.06,-0.26
84.4600,-8.71,4.90,5.88,-0.92,0.21,-0.79
84.5420,-10.71,4.47,4.51,0.40,0.35,0.10
84.6240,-6.75,1.69,1.65,-0.08,0.45,0.39
84.7060,-6.75,2.47,1.41,-0.21,0.08,0.35
84.7880,-8.12,2.47,1.02,-0.18,-0.05,0.11
84.8700,-13.06,2.98,0.55,-0.29,-0.05,0.03
84.9520,-9.34,4.39,6.35,-0.35,0.37,-0.11
85.0340,-5.33,4.08,1.06,0.80,0.58,-0.05
85.1160,-9.49,3.49,4.43,-0.06,-0.63,0.02
85.1980,-6.90,3.45,3.41,0.08,-0.53,-0.17
85.2800,-6.94,1.73,3.30,0.36,-0.54,-0.09
85.3620,-8.36,3.14,2.90,0.28,-0.07,0.17
85.4440,-11.41,2.20,2.16,0.47,-0.08,0.04
85.5260,-12.12,2.39,1.57,0.35,0.08,-0.18
85.6080,-9.41,3.77,5.77,-1.15,0.45,-0.81
85.6900,-9.92,5.73,4.86,-0.48,0.33,-0.50
85.7720,-7.53,2.24,2.94,0.17,0.55,0.34
85.8540,-6.43,2.43,1.65,-0.28,0.23,0.60
85.9360,-7.14,3.18,1.45,-0.35,0.01,0.22
86.0180,-10.75,2.67,0.82,-0.35,0.12,-0.17
86.1000,-13.18,0.16,-0.82,-0.12,0.05,0.09
86.1820,-14.16,6.67,2.00,0.78,-0.40,0.27
86.2640,-9.61,3.41,4.43,0.17,-0.13,0.01
86.3460,-7.85,3.53,3.73,-0.30,-0.63,-0.03
86.4280,-6.67,2.08,2.98,0.10,-0.42,-0.09
86.5100,-6.98,2.00,3.26,-0.08,-0.10,0.17
86.5920,-9.77,3.45,2.67,0.40,0.16,0.13
86.6740,-13.30,1.45,1.77,0.80,-0.18,-0.06
86.7560,-12.55,4.39,4.31,0.44,-0.11,-0.23
86.8380,-10.59,5.06,6.63,-1.04,0.08,-1.11
86.9200,-11.26,4.47,4.20,0.43,0.34,0.06
87.0020,-5.84,1.65,1.14,0.00,0.31,0.33
87.0840,-6.08,2.59,1.73,-0.18,0.01,0.44
87.1660,-8.83,2.35,1.37,-0.05,-0.07,-0.00
87.2480,-12.79,3.45,1.18,-0.41,-0.04,0.01
87.3300,-9.45,6.98,8.28,-0.14,0.13,-0.10
87.4120,-5.10,3.53,1.45,0.83,0.49,-0.12
87.4940,-10.00,2.98,4.67,0.00,-0.30,0.11
87.5760,-7.45,4.31,3.30,0.01,-0.49,-0.16
87.6580,-7.34,1.88,2.94,0.47,-0.47,-0.29
87.7400,-7.65,2.79,2.63,0.12,-0.15,0.09
87.8220,-9.10,3.02,2.67,0.63,-0.20,0.17
87.9040,-10.71,3.18,1.57,0.93,0.03,0.09
87.9860,-11.38,5.33,3.80,0.87,-0.43,-0.29
88.0680,-9.30,4.24,7.10,-0.50,-0.29,-0.73
88.1500,-9.65,7.22,5.49,0.11,0.24,-0.21
88.2320,-7.45,2.63,3.26,0.56,-0.13,0.30
88.3140,-7.10,3.73,2.28,-0.00,-0.04,0.31
88.3960,-7.96,4.71,2.82,-0.07,0.01,0.19
88.4780,-9.34,4.24,2.75,-0.26,0.18,0.11
88.5600,-8.16,4.39,2.90,-0.45,0.26,0.15
88.6420,-7.69,4.55,3.22,-0.41,0.06,0.14
88.7240,-8.90,5.10,3.77,-0.27,-0.11,0.02
88.8060,-8.87,4.59,3.41,-0.04,-0.01,0.06
88.8880,-7.92,3.96,3.02,-0.04,0.02,0.05
88.9700,-8.75,4.31,3.49,0.05,-0.03,-0.04
89.0520,-8.90,3.77,3.30,0.06,-0.02,-0.11
89.1340,-9.06,3.69,3.37,-0.07,0.02,-0.10
89.2160,-8.87,3.45,3.18,-0.08,0.01,-0.07
89.2980,-9.22,3.30,3.33,-0.07,0.01,-0.01
89.3800,-9.45,3.80,3.73,-0.22,0.02,-0.03
89.4620,-9.06,3.37,3.26,-0.03,0.03,-0.07
89.5440,-9.38,3.41,3.37,-0.13,0.05,-0.02
89.6260,-9.14,3.49,3.45,-0.06,0.09,-0.02
89.7080,-9.06,3.53,3.30,-0.07,0.09,-0.01
89.7900,-8.90,3.69,3.33,-0.01,0.02,-0.00
89.8720,-9.61,3.14,3.06,0.02,-0.00,0.01
89.9540,-9.38,3.30,2.98,-0.05,0.00,0.01
90.0360,-9.34,3.26,2.82,0.04,0.00,-0.00
90.1180,-9.45,3.26,2.75,0.03,0.02,-0.01
90.2000,-9.45,3.18,2.90,0.01,0.03,-0.03
