NAME:,walk_121_4_1.csv,,,,,
EXPERIMENT TIME:,18/03/2024 16:48,,,,,
ACTIVITY TYPE:,Walking,,,,,
COUNT OF ACTUAL STEPS:,110,,,,,
,,,,,,
Time [sec],ACC X,ACC Y,ACC Z,GYRO X,GYRO Y,GYRO Z
0.048922,1.18,-8.28,3.73,-0.02,0.01,0
0.124962,0.98,-8.39,3.61,-0.02,-0.03,0.04
0.27982,1.06,-8.32,3.65,-0.03,-0.04,0.05
0.353264,1.22,-8.36,3.88,-0.04,-0.01,0.02
0.458011,1.06,-8.36,3.57,-0.04,0.02,-0.01
0.534923,1.37,-8.36,3.41,-0.04,0.01,-0.02
0.645069,1.26,-8.43,3.77,-0.03,0.04,-0.03
0.733394,1.18,-8.47,3.41,-0.03,0.03,-0.03
0.840771,1.26,-8.36,3.53,-0.04,0.04,-0.03
0.912612,0.94,-8.32,3.92,-0.04,0.02,-0.04
1.013388,0.9,-8.55,4.12,-0.01,-0.01,-0.05
1.129524,0.75,-8.47,3.88,0.04,-0.06,-0.02
1.236427,1.02,-8.32,3.45,0.07,-0.13,0
1.362569,1.06,-8.16,3.69,0.09,-0.13,0.01
1.441684,1.69,-8.59,4.08,0.04,-0.2,0.05
1.54746,1.29,-8.12,4.71,0.18,-0.38,0.14
1.6534,1.69,-8.08,4.24,0.29,-0.66,0.11
1.774012,1.61,-7.1,3.73,0.4,-0.84,0.11
1.846004,2.31,-6.83,4.08,0.23,-0.62,0.19
1.949346,1.1,-6.32,4.86,-0.19,-0.25,0.2
2.069947,0.94,-7.41,7.14,0.41,-0.93,0.3
2.188577,7.77,-12.2,8.43,0.92,-0.71,0.33
2.266597,3.84,-7.92,2.67,-0.71,1.19,0.33
2.370093,1.26,-9.81,2.31,-0.61,0.84,0.46
2.486365,0.12,-5.02,4,0.04,1.26,0.41
2.568933,0.2,-5.65,1.96,-0.09,0.4,-0.16
2.669397,-1.92,-7.77,7.65,-0.37,-0.36,-0.29
2.778427,-0.35,-11.61,9.02,-0.01,0.26,0.28
2.864049,1.18,-9.77,-0.39,0.34,-0.22,-0.63
2.963969,1.14,-6.39,7.85,0.07,-0.73,-0.03
3.06713,0.24,-5.33,0.2,1.05,-1.79,0.41
3.178784,3.53,-3.33,1.1,-0.27,-0.44,0.43
3.299035,4.94,-10.47,9.69,0.97,-0.45,0.34
3.367129,8.28,-10.08,-4,-0.86,0.89,-0.16
3.469423,1.77,-14.83,0.04,-1.84,3.27,0.19
3.572237,1.41,-3.92,1.88,-0.22,1.71,-0.04
3.648121,-1.73,-4.75,1.14,-0.07,0.75,-0.64
3.760644,-1.61,-10.24,10.79,-1.13,-0.7,-0.36
3.857477,2,-12.71,9.22,0.9,0.14,0.43
3.977446,9.02,-14.91,-1.69,-1.45,-0.26,-0.75
4.051029,-1.18,-4.59,4.67,0.82,-1.74,0.19
4.14642,0.47,-3.69,-0.55,0.6,-1.38,0.56
4.261005,1.02,-7.65,9.77,-0.76,0.38,0.9
4.363127,-0.16,-11.22,12.67,1.16,-1.35,0.04
4.474044,6.28,-11.77,1.61,0.2,0.8,-0.03
4.584786,1.22,-4.55,1.14,-0.52,0.27,0.46
4.682798,2.2,-1.88,3.49,-0.03,0.84,-0.18
4.796187,-4.47,-8.2,3.84,-0.26,-0.6,-0.51
4.912863,-1.84,-14.44,7.69,0.48,0.55,0.46
5.017623,1.26,-9.61,-0.94,0.6,0.97,-1.06
5.09577,1.14,-4.67,4.82,0.42,-0.69,-0.15
5.208978,-1.69,-4.67,-1.57,0.77,-2.42,0.61
5.325394,4.94,-2.86,2.31,-0.55,-0.34,0.86
5.396334,3.65,-14.71,9.77,0.87,-1.14,0.27
5.507693,5.14,-3.14,-3.96,-0.62,0,-0.54
5.634809,1.29,-15.42,1.88,-1.06,2.35,0.92
5.72637,2.94,-4.04,0.75,-0.7,1.95,-0.48
5.829558,-2.75,-6.2,0.9,0.08,0.63,-0.66
5.936386,-0.94,-10.2,10.04,-0.65,-0.5,-0.23
6.048819,0,-12.67,7.18,1.46,0.62,0.28
6.12693,7.61,-11.45,-0.43,-0.99,0.27,-0.42
6.234109,-2.94,-4.82,4.16,1.02,-2.13,0.37
6.34903,0.71,-3.84,0.78,0.53,-1.46,0.57
6.435807,-1.49,-9.45,9.53,-0.77,0.39,0.78
6.532851,6.39,-11.81,7.85,1.67,-2.15,-0.14
6.642858,2.67,-13.34,-0.08,0.18,2.26,0.5
6.765382,1.57,-4.35,1.57,-0.12,0.63,0.35
6.840237,0.47,-2.94,3.73,0.06,1.19,-0.56
6.950097,-4,-7.57,5.61,-0.45,-0.42,-0.5
7.072486,0.24,-14.04,9.53,0.16,0.05,0.54
7.143481,3.45,-14.32,-1.18,0.03,-0.31,-1.41
7.251371,1.33,-4.9,4.94,-0.15,-0.4,-0.08
7.369427,-0.82,-3.57,-2.43,0.78,-2.16,0.66
7.443363,2.98,-4.55,4.63,-1.04,-0.02,0.66
7.561874,5.02,-12.47,9.89,0.5,-2.03,0.11
7.668428,4.16,-8.32,0.24,-0.77,1.77,-0.1
7.768146,0.39,-10.08,1.88,-0.87,1.14,0.51
7.892682,2.51,-3.22,3.26,0.01,2.11,-0.38
7.961894,-2.75,-5.77,0.08,-0.13,0.32,-0.64
8.066445,-3.18,-12.16,6.43,0.11,0.16,-0.11
8.190296,-1.45,-11.18,3.73,1.88,1.67,-0.39
8.260251,6.86,-13.49,0.94,-0.53,-0.5,-0.25
8.367775,-3.92,-2.94,6.04,1.82,-2.42,0.43
8.493772,3.49,-2.16,1.06,0.62,-0.97,0.4
8.573917,-1.37,-9.49,11.61,-0.99,0.58,0.64
8.679863,0.04,-11.57,12.71,1.7,-1.61,-0.13
8.795788,3.33,-13.38,0,0.17,1.46,0.12
8.92868,1.69,-5.14,2.12,-0.4,0.68,0.36
8.9968,-0.31,-2.2,3.65,0.21,1.36,-0.58
9.084939,-3.26,-7.45,5.49,-0.56,-0.52,-0.5
9.19218,0.98,-14.71,9.69,0.25,0.32,0.3
9.270248,0.2,-9.41,-1.33,0.32,0.31,-0.93
9.388088,2.16,-5.18,4,-0.13,-0.11,-0.29
9.488851,-1.37,-3.77,-0.63,0.7,-1.66,0.26
9.6098,3.3,-3.41,3.65,-0.73,0.13,0.53
9.705408,4.86,-12.67,10.67,0.66,-1.37,0.14
9.806336,5.26,-7.37,0.08,-0.96,1.06,-0.39
9.915918,0.98,-12.51,1.14,-0.91,1.72,0.49
9.999551,2.04,-3.88,1.73,-0.2,1.66,-0.21
10.10691,-3.84,-6.83,0.78,-0.01,0.09,-0.4
10.234405,1.1,-9.92,9.53,-0.67,-0.5,-0.09
10.339998,1.1,-11.26,8.55,1.3,0.81,0.36
10.417941,6.32,-13.69,0.24,-0.73,-0.96,-0.64
10.525281,-3.1,-4.43,4.82,1.52,-1.96,0.22
10.649405,1.65,-3.41,1.06,0.76,-1.29,0.33
10.727649,1.29,-8.9,11.06,-1.14,0.54,0.45
10.826089,3.14,-10.36,10.04,1.36,-2.12,0.14
10.935975,4.47,-8.12,2.2,0.15,1.26,0.21
11.07495,0.43,-6.2,2.28,-0.56,0.52,0.67
11.154736,1.53,-2.75,4.24,0.22,1.11,-0.23
11.255426,-3.88,-6.75,3.26,-0.28,-0.24,-0.44
11.325592,-0.51,-12.79,7.1,0.12,0.09,0.18
11.456532,-1.53,-6.75,-1.45,1.2,0.73,-0.58
11.56277,5.26,-8.59,2.71,-0.98,-0.46,-0.84
11.670766,-1.8,-3.06,1.77,1.45,-2.29,0.54
11.748931,3.57,-3.1,2.63,-0.34,-0.43,0.24
11.858362,0.75,-11.69,13.93,0.54,-0.26,0.38
11.941955,5.88,-11.1,-0.2,0.03,0.29,-0.36
12.050238,1.96,-14.91,1.77,-1.8,2.89,0.29
12.127714,2.24,-4.55,0.82,-0.78,0.58,0.01
12.255898,-1.8,-4.43,3.88,-0.04,0.64,-0.33
12.376719,-3.22,-7.92,6.47,-0.45,-0.36,-0.35
12.456236,1.84,-12.47,10.87,-0.01,0.08,0.45
12.562726,6,-14.75,0.35,-0.08,-0.52,-1.21
12.646893,-0.78,-5.1,7.34,0.19,-0.87,0.02
12.77969,-0.08,-3.88,-1.73,0.83,-2.13,0.66
12.885919,3.18,-4.75,4.67,-1.06,0.12,0.6
13.000657,4.75,-13.81,9.02,0.51,-1.65,-0.05
13.089658,4.63,-5.06,-2.28,-0.74,1.36,-0.05
13.201939,0.98,-10,1.37,-1.3,1.25,0.66
13.313095,1.96,-3.49,2.59,-0.06,1.69,-0.11
13.402278,-2.63,-6.39,1.37,-0.09,0.04,-0.35
13.519494,-0.75,-10.75,7.61,0.02,-0.1,-0.06
13.598306,-0.59,-11.3,6.43,1.83,1.55,-0.05
13.721763,6.32,-13.53,0.94,-0.59,-0.62,-0.62
13.816884,-1.84,-3.57,2.31,1.4,-1.73,0.04
13.918546,2.94,-3.26,0.67,0.33,-0.79,0.31
14.003724,0.12,-9.14,10.9,-0.71,0.3,0.54
14.124769,6.12,-9.18,5.33,1.81,-1.49,-0.11
14.205191,3.77,-9.77,1.45,0.13,1.23,0.36
14.328588,0.59,-5.57,2.31,-0.46,0.61,0.46
14.406064,0.55,-3.1,3.1,0.33,0.83,-0.23
14.523628,-3.49,-7.53,4.31,-0.31,-0.5,-0.31
14.608951,-0.31,-13.26,9.57,0.06,0.21,0.37
14.732678,0.08,-9.14,-1.29,0.73,0.21,-0.63
14.824489,4.67,-5.37,3.77,-0.56,0.12,-0.31
14.932949,-1.37,-3.92,0.08,1,-1.8,0.47
15.009828,3.49,-3.65,2.63,-0.39,-0.31,0.56
15.120929,4.35,-12.98,11.3,0.76,-0.31,0.31
15.212248,5.1,-10.87,0.78,-0.86,0.82,-0.37
15.317003,1.06,-14.87,1.22,-1.36,2.58,0.31
15.393885,1.8,-4.43,2.08,-0.35,1.5,-0.09
15.511712,-2.59,-5.57,1.65,0.01,0.4,-0.43
15.640554,-0.9,-9.18,9.3,-0.84,-0.4,-0.24
15.71053,1.1,-11.53,9.77,1.1,0.65,0.45
15.813316,5.53,-14.51,0.12,-0.44,-1.03,-0.69
15.936087,-1.77,-4.04,7.37,1.28,-1.94,0.3
16.061585,0.67,-3.02,0.24,0.56,-1.15,0.44
16.142366,1.06,-8.16,8.87,-1.21,0.63,0.52
16.259012,4.75,-12.75,12.12,1.01,-2.31,0.02
16.354064,4.04,-8.79,2.31,0.25,1.44,0.11
16.476948,1.26,-5.57,2.75,-0.76,0.56,0.41
16.548834,0.12,-3.06,3.57,0.38,1.34,-0.37
16.664873,-3.69,-6.83,3.14,-0.35,-0.36,-0.43
16.756613,0.55,-13.96,8.79,0.08,0.23,0.26
16.863262,-1.18,-8.47,-0.98,1.06,0.66,-0.79
16.952892,4.16,-6.67,2.82,-0.53,0.01,-0.34
17.071927,-0.75,-3.53,0,0.94,-1.97,0.46
17.144147,3.14,-3.45,3.18,-0.55,-0.08,0.48
17.267925,4.9,-12.79,11.69,0.68,-0.65,0.35
17.378707,6.16,-9.53,0.16,-1.08,0.96,-0.31
17.46134,1.88,-13.14,1.49,-1.25,2.19,0.45
17.562505,1.14,-4.08,1.92,-0.13,1.55,-0.12
17.675614,-2.75,-5.57,1.73,-0.06,0.28,-0.45
17.800743,-0.55,-9.73,9.06,-0.4,-0.25,-0.17
17.900277,0.04,-12.2,9.06,1.54,1.14,0.27
18.001674,5.49,-13.89,0.39,-0.58,-0.87,-0.48
18.084753,-2.75,-5.22,5.14,0.95,-1.87,0.22
18.193378,1.77,-4.28,0.63,0.58,-1.36,0.48
18.323076,0.24,-7.96,9.81,-0.82,0.44,0.57
18.415725,1.69,-10.98,10.59,1.33,-1.72,0.15
18.520106,4.98,-8.39,3.06,0.29,1.21,0.12
18.600025,1.41,-6.12,2.35,-0.37,0.19,0.71
18.715903,1.53,-2.98,3.1,0.05,1.06,-0.43
18.808968,-3.8,-6.83,3.26,-0.27,-0.47,-0.29
18.911761,-1.02,-13.34,5.92,0.26,-0.09,0.29
18.995597,-0.51,-10,1.92,1.28,1.2,-0.22
19.126562,6.04,-8.87,4.16,-0.59,-0.19,-0.73
19.207278,-2,-3.73,1.45,1.11,-2.08,0.57
19.318194,3.3,-3.8,1.92,-0.06,-0.31,0.27
19.418371,-0.16,-10.55,11.65,0.46,-0.09,0.57
19.553077,5.45,-10.98,0,0.16,-0.07,-0.2
19.625748,2.59,-13.53,0.31,-1.19,2.03,0.93
19.740599,0.27,-4.51,4.51,0.51,1.77,0.17
19.823906,-0.24,-3.69,1.77,0.15,0.3,-0.53
19.94503,-2,-7.06,6.16,-0.52,-0.47,-0.58
20.040287,2.98,-11.18,11.41,0.56,0.48,0.13
20.14056,0.71,-12.91,1.33,0.49,-1.24,-0.28
20.22031,4,-5.45,1.8,-0.7,0.93,-0.79
20.333949,-2.55,-3.3,3.06,0.51,-2.04,0.73
20.425393,2.94,-4.94,5.33,-0.51,0.43,0.2
20.540172,2.31,-13.53,12.51,0.36,-1.94,0
20.619485,5.88,-5.88,-1.1,-0.82,1.36,-0.45
20.735822,0.24,-10.9,3.22,-1.01,1.23,0.38
20.855096,1.06,-3.14,2.43,0.03,1.5,-0.32
20.943223,-1.69,-5.45,1.73,-0.1,0.32,-0.5
21.066855,-0.08,-9.96,9.22,-0.6,-0.12,-0.41
21.149619,0.04,-11.57,7.22,1.27,0.63,0.2
21.276818,5.84,-13.53,0.75,-0.64,-0.53,-0.35
21.355823,-0.43,-4.04,4.63,1.02,-1.47,0.43
21.47252,0.59,-4.59,0.71,0.51,-1.29,0.53
21.569689,0.39,-8.28,8.63,-0.74,0.49,0.71
21.693189,1.18,-12.16,12.98,0.97,-2.16,0.02
21.763302,4.79,-9.77,3.1,0.3,1.33,0.2
21.874578,-0.51,-5.84,2.82,-0.18,0.21,0.6
21.957491,1.33,-2.51,3.49,0,0.87,-0.34
22.093694,-3.65,-6.35,3.88,-0.32,-0.35,-0.37
22.176199,-2,-13.89,9.1,0.04,0.21,0.16
22.286831,0.59,-9.81,1.69,1.23,0.93,-0.16
22.374101,4.59,-8.24,4.24,-1.13,-0.43,-0.4
22.499123,-2.43,-4.28,-0.04,0.92,-2.04,0.36
22.580968,3.61,-3.18,2.12,-0.19,-0.48,0.63
22.701717,1.29,-11.34,12.67,0.61,-0.03,0.32
22.797412,5.81,-12.98,1.77,0.36,-0.06,-0.45
22.900815,1.88,-15.1,1.65,-1.07,2.57,0.37
22.979499,1.29,-4.35,2.55,-0.36,1.38,-0.03
23.1149,-1.96,-4.79,2.2,0.16,0.78,-0.47
23.193213,-2.16,-7.45,6.9,-0.64,-0.34,-0.49
23.309201,0.2,-12.91,11.1,0.11,0.08,0.51
23.397129,4.35,-14.91,-1.69,0.05,-0.59,-1.12
23.522187,1.45,-4.79,5.84,-0.1,-0.04,-0.23
23.598368,-0.86,-3.53,-1.06,0.77,-1.76,0.52
23.718176,2.82,-5.26,5.06,-0.78,-0.03,0.55
23.812428,3.88,-12.24,9.89,0.19,-2.03,-0.18
23.910328,5.92,-6.39,-0.67,-0.86,1.64,-0.3
23.993233,0.71,-12,1.8,-0.61,0.82,0.85
24.108662,2.28,-3.37,2.9,0.03,1.87,-0.55
24.201796,-3.37,-5.81,1.8,-0.13,0.2,-0.56
24.317326,-0.86,-11.41,8.98,-0.21,-0.02,-0.11
24.443323,-0.82,-11.34,4.47,1.81,1.22,0.01
24.532965,5.61,-13.18,2.24,-0.44,-0.64,-0.22
24.639943,-1.49,-3.65,4,0.75,-1.41,0.31
24.722996,1.65,-4.28,1.33,0.26,-1.57,0.6
24.842921,0.12,-9.3,10.47,-0.4,0.21,0.51
24.924482,4.35,-11.85,8.63,1.26,-1.48,0.23
25.038033,2.75,-11.45,0.43,0.42,1.1,0.58
25.119194,0.51,-4.55,2.55,0.04,0.64,0.05
25.254228,-0.31,-3.02,3.69,0.02,0.93,-0.49
25.333882,-3.92,-6.79,4.24,-0.5,-0.41,-0.51
25.458833,0.55,-13.22,10.24,-0.18,0.18,0.37
25.553881,-1.77,-8.08,-1.53,0.6,0.12,-0.57
25.658549,5.06,-9.26,4.28,-0.44,0.26,-0.52
25.772122,-2.82,-4.94,-0.08,0.7,-1.55,0.4
25.85665,3.77,-3.06,3.14,-0.21,-0.68,0.62
25.968643,4.31,-12.51,11.1,0.58,-1.18,0.1
26.0497,4.12,-11.3,-0.12,-0.11,0.38,-0.3
26.172077,1.45,-16.83,0.63,-1.62,2.4,0.49
26.25642,0.98,-4.94,2.47,-0.23,1.39,0.23
26.376764,-0.24,-4.75,2.08,-0.1,0.52,-0.47
26.460527,-2,-8.71,6.55,-0.54,-0.43,-0.44
26.602099,0.31,-12,11.02,0.18,0.21,0.29
26.680601,1.69,-11.14,-2.43,0.06,-0.39,-0.99
26.79378,0.24,-3.96,7.02,0.29,-0.96,-0.17
26.889914,-1.14,-4.39,-0.9,0.58,-1.49,0.52
27.006679,3.06,-4.75,5.57,-0.85,-0.29,0.65
27.089142,2.43,-11.81,11.49,0.67,-2.08,0.04
27.211705,5.61,-7.22,1.18,-0.81,1.57,0.04
27.303256,1.45,-11.77,2.04,-0.92,1.73,0.68
27.420256,2.2,-2.63,2.04,0.05,1.76,-0.39
27.504899,-3.77,-5.69,2.35,-0.22,0.11,-0.53
27.610113,0.94,-11.49,9.73,-0.22,0.08,0
27.690791,-0.12,-12.28,3.41,1.25,0.98,-0.04
27.809514,4.98,-13.38,2.43,-0.61,-0.48,-0.4
27.889858,-1.45,-3.45,3.06,1.06,-1.52,0.22
28.013743,0.27,-4.59,-0.31,-0.12,-0.92,0.37
28.115132,-1.14,-10.32,11.22,-0.63,0.3,0.62
28.222028,6.04,-11.49,4.82,1.22,-1.02,0.11
28.304938,3.69,-10.98,1.18,0.33,0.89,0.37
28.445799,0.98,-4.16,1.65,-0.14,0.51,0.26
28.52408,-1.22,-3.14,3.3,0.05,0.79,-0.52
28.642146,-2.47,-7.06,5.26,-0.48,-0.39,-0.53
28.731825,2.55,-12.2,11.3,0.05,0.19,0.4
28.848538,-1.77,-9.92,-3.06,0.52,-0.29,-0.37
28.937451,4.71,-6.35,3.65,-0.32,0.47,-0.61
29.063126,-1.41,-4.55,-0.86,0.83,-1.68,0.53
29.149359,3.88,-3.18,3.84,-0.42,-0.49,0.56
29.261406,3.1,-13.22,9.85,0.62,-0.77,0.01
29.35823,5.33,-11.38,-0.12,-0.46,0.32,-0.47
29.488922,1.65,-14.71,1.45,-2.27,2.24,0.37
29.573034,1.14,-4.51,2.63,0.06,1.87,0.17
29.661075,-1.29,-5.1,1.33,-0.05,0.43,-0.31
29.778417,-0.43,-9.45,7.88,-0.52,-0.31,-0.41
29.862023,2.94,-12.94,11.73,0.93,0.96,0.16
29.97684,2.75,-13.96,-4.43,-0.62,-1.65,-0.81
30.063822,0.82,-4.75,6.9,-0.11,-0.99,-0.15
30.178872,-0.24,-4.2,-1.41,0.71,-1.83,0.5
30.269782,3.02,-4.67,6.16,-0.77,-0.02,0.59
30.385459,2.63,-12.47,10.94,0.56,-1.51,0.05
30.469778,6.2,-3.96,-1.14,-0.98,1.25,-0.26
30.609501,1.33,-11.34,2.43,-1.03,1.92,0.77
30.694863,1.8,-3.02,1.53,0.16,1.81,-0.29
30.821607,-2.98,-5.77,2.43,-0.18,0.09,-0.47
30.893399,1.41,-10.94,8.16,-0.04,-0.02,-0.07
31.004849,-0.82,-12.63,7.26,1.5,0.91,0.04
31.093732,5.96,-12.98,2.75,-0.37,-0.44,-0.44
31.204969,-1.37,-4.31,5.84,1.16,-1.35,0.33
31.287874,-0.12,-4.59,-0.31,0.49,-1.38,0.52
31.415405,0.94,-7.57,9.53,-0.87,0.11,0.66
31.505068,0.86,-11.69,12.28,1.05,-2.3,0.28
31.628612,6.39,-6.28,1.57,0.13,0.92,0.15
31.721174,0.31,-9.81,3.77,-0.49,0.52,0.88
31.851049,1.73,-3.53,1.61,0.02,1.55,-0.54
31.929253,-2.55,-5.73,2.98,-0.29,-0.19,-0.47
32.012587,-0.08,-12.43,8.04,-0.15,0.21,0.17
32.116756,-0.63,-9.49,2.31,1.54,1.38,-0.21
32.226469,5.18,-11.34,4,-0.51,-0.21,-0.42
32.361349,-2.28,-5.45,1.06,0.87,-1.52,0.27
32.449072,3.73,-2.79,1.49,0.16,-0.91,0.31
32.561852,-0.12,-10.32,10.43,-0.4,0.07,0.5
32.646497,4.04,-11.53,6.35,1.61,-1.4,-0.11
32.770085,3.8,-11.18,0.55,0.47,0.1,0.39
32.8544,0.78,-5.73,3.77,-0.44,1.33,0.63
32.938851,0.47,-3.8,1.8,0.04,1,-0.58
33.062151,-3.37,-5.77,4.63,-0.44,-0.26,-0.51
33.151223,-0.63,-12.24,11.14,-0.2,0.56,0.28
33.276749,-0.47,-8.2,0.24,0.78,0.06,-0.27
33.373984,5.22,-9.61,3.53,-0.94,0.2,-0.6
33.48871,-2.39,-4.94,1.8,0.85,-1.98,0.54
33.581759,3.1,-3.61,1.8,-0.13,-0.47,0.36
33.707927,0.24,-10.28,11.57,0.34,-0.19,0.47
33.790187,7.06,-12.71,-0.35,-0.06,-0.16,-0.47
33.867861,2.2,-15.46,1.49,-1.22,2.37,0.37
33.98111,1.1,-4.47,1.53,0.01,0.81,-0.02
34.080903,0.27,-4.04,3.02,0.03,0.8,-0.46
34.209645,-2.59,-7.22,6.28,-0.45,-0.47,-0.46
34.292408,-1.41,-13.38,8.9,0.15,0.18,0.47
34.430421,1.45,-10.36,-0.16,0.46,0.3,-0.42
34.52398,2.51,-5.41,4.63,-0.03,-0.34,-0.15
34.599243,-1.69,-4.86,0.2,0.91,-1.94,0.53
34.720939,4.35,-3.45,1.96,-0.05,-0.79,0.48
34.814069,4.04,-11.92,10.32,0.51,-0.4,0.32
34.905442,7.96,-11.45,-1.96,0.02,0.21,-0.46
35.041545,0.67,-15.81,0.16,-1.44,2.52,0.49
35.124735,1.29,-4,2.24,-0.13,1.39,-0.01
35.208288,-0.63,-4.71,2.51,0,0.55,-0.39
35.329046,-2.63,-8.04,7.06,-0.57,-0.25,-0.5
35.429381,1.26,-12.71,12.12,-0.07,0.1,0.52
35.513527,5.73,-13.3,-2.9,-0.26,-1.07,-1.39
35.637405,1.92,-4.39,5.49,0.14,-0.68,-0.32
35.727574,-1.37,-4.24,-0.59,0.81,-1.72,0.4
35.822694,2.79,-4.59,4.94,-0.81,-0.16,0.55
35.955833,5.88,-11.38,9.1,0.52,-1.93,0.06
36.069796,5.3,-8.08,-1.73,-1.32,2.15,-0.11
36.20375,1.06,-13.65,1.14,-1.58,2.01,0.61
36.375821,1.61,-2.75,2.51,0.39,1.96,-0.28
36.496796,-2.2,-5.06,1.77,-0.15,0.14,-0.45
36.612582,1.77,-11.14,7.65,-0.5,-0.24,-0.41
36.728143,1.06,-13.22,8.08,0.8,0.45,0.26
36.862906,7.81,-11.49,-0.2,-0.42,-1.35,-0.95
36.957253,-1.92,-5.53,6.59,0.57,-1.37,-0.05
37.049336,2.39,-2.79,-0.39,0.77,-1.05,0.31
37.145837,1.33,-6.71,6.71,-0.87,-0.23,0.64
37.233419,2.31,-10.08,10.9,0.8,-2.15,0.23
37.372891,7.45,-8.67,1.49,-0.38,1.66,0.01
37.47462,1.37,-9.3,2.2,-0.94,1.3,0.52
37.567661,1.45,-2.35,1.8,0.17,1.73,-0.39
37.653104,-3.73,-5.96,2.71,-0.4,-0.05,-0.56
37.741266,-0.27,-12.67,8.24,-0.13,0.23,0.15
37.871032,-0.55,-10.87,3.1,1.52,0.99,0.04
37.958732,8.12,-11.26,3.22,-0.66,-0.19,-0.71
38.04881,-2.82,-5.1,2.47,1.22,-1.6,0.26
38.143483,3.61,-2.9,1.37,0.32,-0.62,0.5
38.225931,-0.27,-10,9.41,-0.82,0.03,0.22
38.354545,5.81,-9.77,5.06,1.62,-1.68,0.17
38.44365,4,-9.96,2.51,0.58,0.31,0.24
38.531879,1.53,-5.49,2.31,-0.34,0.74,0.83
38.618048,-0.27,-4.82,1.96,0,1.04,-0.38
38.758071,-3.14,-6.28,5.65,-0.52,-0.34,-0.47
38.843672,-2.16,-11.96,10.04,-0.07,0.43,0.36
38.927615,-0.2,-9.06,-1.22,0.5,-0.36,-0.22
39.017422,5.45,-6.63,4,-0.17,0.36,-0.77
39.160502,-1.57,-5.06,-0.08,1,-1.67,0.54
39.248928,3.65,-2.75,2.67,-0.23,-0.36,0.39
39.337783,-0.2,-12.51,11.61,0.35,-0.3,0.32
39.444766,8.04,-10.08,0.71,0.39,-0.28,-0.03
39.56428,2.08,-14.16,0.16,-1.6,2.59,0.14
39.661721,0.94,-5.41,2.31,-0.27,1.02,0.25
39.763594,-1.37,-4.47,2.12,-0.01,0.7,-0.5
39.848466,-2.9,-6.9,5.73,-0.55,-0.41,-0.41
39.981861,-0.47,-13.45,10.43,-0.21,0.02,0.45
40.088465,-0.39,-10.08,-1.33,0.38,-0.24,-0.39
40.167864,3.77,-5.1,5.22,-0.02,-0.62,-0.29
40.251163,-0.71,-4.55,-0.98,1.2,-1.89,0.61
40.372354,3.65,-3.02,2.98,-0.44,-0.21,0.56
40.470767,3.33,-12.63,10.43,0.73,-0.34,0.29
40.555679,6.47,-11.69,1.06,0.21,-0.15,-0.59
40.642344,1.65,-15.06,2.24,-1.99,2.89,-0.05
40.768595,2.75,-4.63,1.92,-0.16,1.52,0.28
40.856563,-2.08,-5.14,1.88,0.14,1.05,-0.57
40.940324,-2.04,-8,7.18,-0.69,-0.4,-0.42
41.037379,1.18,-13.93,11.92,-0.27,0.03,0.49
41.162236,0.12,-10.94,-2,0.36,-0.9,-0.62
41.266832,1.29,-6,5.22,-0.01,-0.34,-0.4
41.343379,0.75,-4.35,-1.02,0.97,-1.7,0.51
41.409149,2.75,-3.41,2.63,-0.77,-0.01,0.4
41.507711,6.75,-13.02,8.08,0.75,-1.64,0.12
41.596208,5.84,-5.02,-2.9,-1.06,1.14,-0.42
41.70531,1.69,-12.59,2.63,-1.58,2.29,0.19
41.819255,2.51,-5.06,1.37,-0.23,1.78,0.13
41.908393,-2.2,-5.88,1.14,-0.07,0.4,-0.53
42.010249,-1.22,-8.79,7.53,-0.5,-0.21,-0.33
42.139075,0.63,-13.22,10.79,0.31,-0.04,0.6
42.222621,5.88,-15.14,0.04,-0.11,-0.94,-0.81
42.315734,0.98,-4.86,4.31,0.75,-0.92,0.18
42.436414,-0.24,-4.04,-0.47,0.99,-1.47,0.48
42.53053,2.08,-4.86,5.92,-0.89,0.04,0.52
42.632252,4.86,-11.49,8.67,0.59,-1.63,0.02
42.741179,6.39,-7.41,-0.31,-1.24,1.45,-0.6
42.828168,1.14,-9.38,2.28,-1.2,1.71,0.29
42.912451,1.57,-4.55,3.77,-0.05,1.82,0.14
43.053038,-2.31,-6,1.22,-0.13,0.22,-0.45
43.145217,0.43,-9.73,7.61,-0.19,-0.08,-0.21
43.234937,0,-12.71,7.61,1.26,0.67,0.6
43.360681,6.75,-14.79,0.2,-0.32,-1.38,-0.79
43.458479,-1.92,-5.33,5.96,1.33,-1.84,0.2
43.556282,2.55,-3.41,-0.43,0.8,-1.23,0.42
43.673576,0.82,-5.84,7.02,-1.34,0.25,0.34
43.774445,2.35,-11.38,11.06,0.73,-2.12,0.21
43.867331,6.28,-5.45,0.16,-0.43,1.46,-0.1
43.99291,1.06,-8.94,2.86,-1.36,1.61,0.39
44.089172,1.96,-3.61,3.26,0.05,2.39,0.13
44.17894,-3.49,-7.06,1.18,-0.43,0.04,-0.44
44.290881,2.94,-12.2,12.87,-0.16,0.87,0.27
44.376315,-3.37,-11.1,1.69,1.3,0.56,-0.15
44.489548,4.9,-13.57,3.1,-0.5,-0.61,-1.21
44.599432,0.63,-4.2,2.08,1.44,-1.91,0.54
44.686309,0.59,-3.69,0,0.89,-0.99,0.32
44.773715,1.84,-6.08,6.71,-0.85,0.03,0.73
44.920764,3.61,-10.75,10.4,0.84,-1.78,0.19
45.005578,5.84,-4.08,1.33,0.11,0.51,-0.67
45.092158,1.06,-11.02,3.26,-1.17,1.89,0.18
45.178855,3.3,-3.49,3.33,-0.56,1.63,0.07
45.319888,-2.71,-6.32,0.71,-0.23,0.46,-0.55
45.401139,-0.35,-9.73,7.1,-0.68,-0.39,-0.41
45.488224,-3.1,-11.65,9.38,0.7,0.43,0.45
45.607014,4.9,-13.45,-1.02,0.08,-0.86,-1.01
45.708045,-0.04,-5.06,6.47,0.85,-1.41,-0.06
45.802604,-1.02,-4.04,-1.96,0.86,-1.4,0.54
45.923823,2.35,-3.69,4.12,-0.91,-0.24,0.55
46.025229,5.18,-10.9,7.77,0.74,-1.59,0.23
46.112101,6.75,-9.34,-0.94,-0.61,0.5,-0.76
46.197921,1.88,-12.08,3.18,-1.82,2.58,0.12
46.332098,3.53,-3.14,2.55,-0.44,2.6,0
46.434372,-2.71,-4.79,1.1,-0.2,0.58,-0.63
46.518229,-0.47,-9.26,7.88,-0.68,-0.29,-0.49
46.637422,1.57,-16,7.45,0.93,0.57,0.51
46.728154,9.65,-16.79,1.92,0.07,-0.65,-1.43
46.829963,-1.33,-5.41,4.94,0.68,-1.46,0.1
46.942249,1.18,-4.55,-1.14,0.66,-1.8,0.45
47.028178,0.82,-5.41,6.28,-1.14,-0.13,0.7
47.134323,2.59,-10.51,11.49,0.77,-2.75,0.22
47.21842,4.55,-7.69,3.06,-0.05,1.46,0.06
47.341332,1.96,-9.06,3.02,-0.93,1.11,0.65
47.428817,3.49,-3.14,2.2,-0.45,1.23,0.23
47.529057,-2.31,-6.9,0.27,-0.02,0.39,-0.57
47.654917,-1.18,-11.18,7.92,-0.16,-0.21,-0.09
47.746316,-0.86,-13.22,5.81,1.44,0.85,0.56
47.838222,6.04,-13.18,1.73,-0.38,-0.74,-0.75
47.976839,-1.45,-4.79,3.65,1.31,-1.71,0.41
48.062135,2.12,-3.45,0.2,0.68,-1.36,0.46
48.148555,1.02,-7.81,7.85,-1.04,0.13,0.45
48.270413,-0.24,-11.38,13.69,0.22,-1.74,-0.26
48.366441,6,-7.73,2.31,-0.22,2.28,-0.21
48.4507,1.45,-7.37,3.18,-0.67,1.54,0.08
48.55353,0.12,-5.06,4.98,-0.74,1.39,0.12
48.673361,-2.04,-6.83,0,-0.07,0.19,-0.45
48.763193,-3.06,-11.22,9.41,-0.3,0,-0.08
48.853715,1.41,-11.85,4.12,1.67,1.25,0.51
48.945948,7.96,-12.32,0.39,-0.99,-0.72,-0.42
49.06727,-1.96,-3.53,3.3,1.63,-2.3,0.52
49.157548,2,-3.26,-0.24,0.47,-1.03,0.49
49.261768,-0.2,-10.28,12.16,-0.99,-0.55,0.67
49.3915,1.18,-12.36,10.24,1.5,-1.19,-0.07
49.489515,4.24,-8.36,4.2,0.56,0.61,0.24
49.588529,1.96,-5.65,0.47,-0.93,0.49,0.34
49.67494,0.12,-2.35,4.08,0.55,1.08,-0.21
49.809383,-3.45,-7.18,2.67,-0.44,-0.27,-0.54
49.89837,-1.77,-13.73,7.85,0.11,0.46,0.38
50.000739,-0.47,-9.34,1.37,1.34,1.16,-0.38
50.127792,6.35,-7.61,3.22,-0.58,-0.59,-0.17
50.227424,-1.69,-4.24,0.78,1.27,-1.97,0.51
50.318032,3.33,-2.67,1.96,0.05,-0.71,0.46
50.408847,-0.2,-11.22,12.87,-0.09,-0.4,0.49
50.551592,8.63,-12.08,-0.12,1.78,-1.03,-0.49
50.631686,1.33,-16.75,-0.16,-1.13,2.53,0.13
50.713572,1.37,-5.14,0.78,-0.77,0.66,0.49
50.801682,0.24,-3.84,3.3,0.42,1.02,-0.42
50.928301,-2.47,-7.49,4.2,-0.63,-0.44,-0.62
51.027707,-0.47,-13.3,11.89,0,0.7,0.51
51.139694,0.24,-10.59,-2.28,0.42,-0.57,-0.5
51.234381,2.16,-6.32,5.02,-0.18,-0.42,-0.32
51.362668,-0.78,-4.35,-2.16,1.19,-2.22,0.63
51.470045,3.69,-2.71,1.84,-0.46,-0.43,0.46
51.550178,7.06,-12.4,9.14,0.56,-0.78,0.13
51.638045,8.71,-10.28,-3.88,-0.17,0.75,-0.68
51.772118,4.55,-16.04,1.8,-2.11,1.81,-0.01
51.909244,0.94,-4.31,1.53,-0.22,3.01,0.39
52.037748,-0.82,-4.28,0.78,-0.12,0.9,-0.43
52.125656,-1.45,-9.02,7.41,-1.24,-0.54,-0.65
52.258888,-0.16,-14.91,7.73,0.05,0.56,0.58
52.358797,4.63,-13.61,-0.9,0.22,-0.52,-1.6
52.458716,-0.12,-5.37,5.69,0.51,-1.2,-0.1
52.546047,0.04,-4.12,-0.98,0.68,-1.05,0.08
52.694882,2.35,-5.37,4.08,-0.69,0.02,0.64
52.788624,5.45,-10.59,7.96,0.31,-1.06,-0.15
52.890348,6.16,-7.41,-1.73,-1.08,1.75,-0.5
52.998654,0.67,-10.67,2.63,-1.58,2.26,0.3
53.12112,1.61,-4.43,2.24,-0.2,1.87,0.11
53.217334,-2.75,-6.24,0.27,-0.19,0.33,-0.44
53.305052,0.82,-10.63,8.39,-0.53,-0.33,-0.21
53.398065,0.47,-13.02,6.75,1.33,0.51,0.54
53.492439,8.36,-16.2,1.88,-0.27,-1.17,-1.03
53.623792,-1.65,-4.98,4.51,1.37,-1.81,0.32
53.730229,2.12,-3.8,-0.31,0.79,-1.24,0.45
53.816738,0.86,-7.73,8.36,-1.33,-0.16,0.55
53.905325,0.08,-9.92,12.4,0.66,-1.25,0.16
54.001773,5.84,-8,2.9,0.46,1.19,-0.26
54.128649,1.22,-8.28,1.96,-1.11,1.13,0.67
54.221224,2.16,-3.06,3.1,0.19,2.21,-0.15
54.317725,-3.61,-5.81,1.8,-0.31,0.33,-0.7
54.4119,-2.16,-11.89,6.86,0.05,0.13,-0.13
54.520825,1.18,-12.36,3.3,1.86,1.04,0.17
54.640937,8,-14.08,2.51,-0.69,-0.4,-0.69
54.736338,-1.92,-4.79,1.69,1.63,-2.23,0.56
54.832327,4.08,-2.24,2,0.51,-1,0.47
54.914142,-0.2,-8.98,9.85,-1.25,0.2,0.51
55.008792,4.67,-13.1,9.34,1.3,-1.45,0.05
55.140514,4.2,-8.87,4.12,0.29,0.78,0.16
55.229898,0.71,-6.55,1.92,-0.82,0.84,0.49
55.327788,0.63,-2.9,3.53,0.38,1.62,-0.25
55.438776,-4.24,-6.47,2.98,-0.45,-0.22,-0.54
55.536468,-1.77,-11.69,7.41,0.09,0.15,0.22
55.655696,-0.35,-8.98,1.26,1.98,1.37,0.03
55.76247,7.53,-10.36,2.04,-1.04,-0.16,-0.98
55.884458,-1.8,-4.12,1.1,1.38,-2.01,0.46
55.981293,3.57,-2.51,2.39,0.03,-0.75,0.52
56.071033,-1.88,-11.38,10.28,0.18,-0.09,0.45
56.191827,7.61,-11.06,4.86,1.77,-1.65,-0.72
56.290506,2.55,-11.22,-0.63,-0.84,1.75,-0.03
56.390506,2.24,-5.3,1.02,-1.09,0.64,0.45
56.476507,-0.78,-4,2.71,0.47,1.42,-0.2
56.568656,-3.57,-6.24,3.73,-0.54,-0.32,-0.68
56.708903,0.71,-14.51,8.9,-0.06,0.34,0.51
56.791577,-1.18,-9.69,0.04,1.79,1.32,0.09
56.872939,5.65,-10.24,3.06,-1.65,-0.14,-0.83
56.965067,-0.12,-4.39,-1.53,1.36,-1.87,0.4
57.054546,3.3,-2.86,1.77,0.04,-0.66,0.49
57.181312,-1.53,-12.28,10.9,-0.24,-0.04,0.43
57.27586,5.53,-9.57,5.57,1.43,-0.84,-0.15
57.387815,2.39,-12.43,0.78,-0.41,1.45,0.16
57.477994,0.71,-5.02,2.04,-0.33,0.47,0.8
57.573731,1.02,-3.61,3.1,0.13,0.84,-0.3
57.713067,-3.37,-7.18,4.31,-0.43,-0.5,-0.5
57.802706,-0.47,-13.42,8.83,-0.14,0.38,0.34
57.890902,-0.35,-9.65,0.04,0.82,0.16,-0.4
57.986786,4.98,-7.02,5.14,-0.22,-0.62,-0.11
58.112319,-1.73,-4.9,-0.98,1.43,-1.85,0.64
58.243739,3.65,-2.63,1.53,-0.01,-0.57,0.59
58.328569,1.57,-11.61,10.51,-0.37,0,0.39
58.418023,7.92,-11.61,2.63,1.97,-1.45,-0.23
58.524243,4.39,-10.32,2.55,0.51,0.48,0.33
58.614137,1.92,-5.77,1.26,-0.66,0.66,0.49
58.745915,-0.47,-5.45,2.82,-0.19,0.93,-0.23
58.844108,-2.24,-6.55,5.18,-0.48,-0.17,-0.41
58.945029,-1.45,-11.61,8.24,-0.12,0.29,0.35
59.036775,0.16,-10.59,0.24,0.93,0.66,-0.65
59.158268,4.35,-6.59,4.39,-0.22,-0.37,-0.18
59.257247,-1.45,-4.35,-0.63,0.98,-1.49,0.4
59.367692,3.73,-2.9,2.55,-0.31,-0.36,0.6
59.460262,2.28,-12.08,9.69,0.68,-0.09,0.36
59.553058,6.71,-10.51,0.98,-0.32,0.25,-0.44
59.717803,0.98,-14.47,2.12,-1.45,3.19,-0.05
59.81233,2.86,-6.32,0.78,-0.42,0.65,0.23
59.907673,-1.33,-4.98,4.04,-0.02,1.04,-0.68
60.021652,-3.22,-6.39,4.63,-0.55,-0.42,-0.4
60.099534,-0.78,-11.81,9.3,-0.3,-0.17,0.41
60.229217,-0.47,-8.32,0.86,1.39,0.92,-0.24
60.32642,5.33,-9.1,2.28,-0.4,-0.66,-0.38
60.417666,-0.98,-4.59,0.63,1.26,-2.32,0.63
60.532324,3.1,-3.06,1.77,0.02,-0.5,0.4
60.623678,-0.12,-10.75,11.14,-0.38,0.17,0.43
60.717635,6.9,-10.47,2,1.54,-0.79,0.14
60.866254,2.51,-10.4,1.84,0.35,0.25,0.36
60.957077,2.2,-6.16,2.24,-0.6,0.46,0.55
61.046456,-0.59,-5.45,2.04,0.08,1.09,-0.42
61.158723,-3.06,-5.41,4.24,-0.46,-0.17,-0.5
61.263738,-1.69,-13.18,6.94,0.12,0.15,0.14
61.385092,3.41,-11.61,4.35,0.99,0.76,-0.06
61.492269,6.75,-10.24,1.77,-0.57,-0.65,-0.34
61.583909,-1.57,-5.88,1.84,1.28,-1.86,0.28
61.673996,2.47,-2.79,1.18,0.16,-0.59,0.43
61.776737,-0.82,-8.2,9.34,-0.8,0.48,0.71
61.902793,4.16,-12.79,8.36,1.14,-1.1,0.06
