NAME:,walk_124_3_2,,,,,
EXPERIMENT TIME:,20/03/2024 10:32,,,,,
ACTIVITY TYPE:,Walking,,,,,
COUNT OF ACTUAL STEPS:,96,,,,,
,,,,,,
Time [sec],ACC X,ACC Y,ACC Z,GYRO X,GYRO Y,GYRO Z
0,1.29,8.04,-0.2,-0.19,0.01,-0.35
0.099976,1.69,10.59,0.47,0.22,-0.02,-0.06
0.210083,1.1,10.04,0.78,0.08,0.05,-0.04
0.310059,1.02,9.22,0.71,-0.06,-0.19,0.11
0.410034,0.86,10.16,1.45,0.03,0.19,-0.03
0.51001,1.22,9.38,0.47,-0.16,0.28,0.1
0.609985,-0.43,11.77,1.02,0.34,0.42,0.12
0.719971,-0.55,9.65,-0.04,0.3,0.2,0.47
0.820068,-1.26,9.85,0.94,0.33,0.43,0.18
0.920044,0.59,9.92,0.24,0.1,-0.08,0.21
1.02002,-0.63,13.85,0.86,0.78,1.03,0.26
1.119995,3.84,11.57,-0.12,0.36,0.05,-0.12
1.22998,2.94,10,0.82,-0.17,-0.36,-0.59
1.330078,0.78,8.75,0.04,-0.58,-0.42,-0.43
1.430054,-0.71,8.67,1.29,-0.53,-0.59,-0.21
1.530029,-1.06,7.81,1.41,-0.05,-0.52,0.01
1.630005,0.31,11.22,3.65,-0.16,-1.02,-0.32
1.73999,3.88,14.75,-0.31,-0.45,-0.33,-0.58
1.839966,3.14,8.43,0.27,-0.32,-0.03,-0.06
1.940063,1.69,9.22,0.31,0.44,0.29,0.4
2.040039,-0.12,9.22,0.59,0.65,0.72,0.42
2.150024,-0.47,8.98,-0.43,0.35,0.61,0.17
2.25,1.65,9.85,0,0.09,0.06,0.59
2.550049,0.39,13.77,0.82,0.83,0.54,-0.35
2.660034,1.22,7.85,-3.06,-0.58,-1.33,-0.78
3.060059,0.55,14.4,1.96,-0.01,-0.05,-0.2
3.680054,1.84,10,0.31,0.09,-0.58,0.32
3.97998,1.06,10.79,0.27,0.14,0.34,-0.6
4.080078,1.73,8,-0.27,-0.45,-0.93,-0.41
5.099976,0.43,9.77,0.51,0.23,1.14,0.36
5.719971,1.61,9.65,1.49,0.33,0.25,0.11
5.820068,1.96,13.69,3.3,0.12,0.78,-0.36
5.920044,3.53,10.63,0.2,-0.33,0.9,-0.06
6.02002,3.02,8.67,0.27,0.45,1.01,0.18
6.119995,2.75,9.34,-0.16,0.29,1.34,0.49
6.22998,0.63,10.12,0,0.61,1.75,0.41
6.330078,-0.59,9.57,0.75,0.43,1.61,0.3
6.430054,-0.24,10.24,0.47,0.17,1.09,0.3
6.530029,0.51,9.38,1.14,0.02,0.6,0.19
6.630005,0.75,12.75,1.37,0.84,1.56,0.09
6.73999,4.16,8.87,0.08,0.68,0.72,0.08
6.839966,1.57,11.89,-0.35,-0.01,1.35,-0.06
6.940063,1.37,7.49,0.75,-0.25,0.58,0.06
7.040039,0.31,8.32,1.33,0.3,0.73,0.24
7.140015,-0.24,8.36,0.82,0.41,0.56,0.23
7.25,0.2,11.14,1.33,0.47,-0.02,-0.06
7.349976,4.59,13.69,2.04,-0.13,0.1,-0.63
7.450073,3.18,8.39,-0.86,-0.43,0.99,-0.13
7.550049,2.63,9.49,-0.31,0.74,1.48,0.27
7.650024,1.96,8.55,-0.2,0.74,1.75,0.5
7.76001,0.59,10.47,-0.59,0.62,1.78,0.41
7.859985,-0.51,9.26,-0.12,0.15,1.54,0.21
7.960083,1.18,10.55,2.2,0.02,0.6,0.1
8.060059,1.06,12.94,2,0.25,0.95,0.59
8.160034,3.22,10.08,-1.29,0.44,0.18,-0.21
8.27002,1.29,10.75,-0.51,-0.16,0.57,-0.48
8.369995,1.45,8.47,-0.12,-0.51,-0.81,-0.15
8.469971,0,9.22,0.75,-0.23,-0.45,0.04
8.570068,-0.12,9.61,0.98,-0.08,-0.52,0.16
8.670044,-0.67,10.83,1.8,-0.18,-0.96,-0.1
8.780029,3.22,14.04,1.41,-0.3,-0.4,-0.57
8.880005,2.82,8.55,0.35,-0.13,-0.06,0.08
8.97998,2.08,8.39,0.08,0.82,0.27,0.53
9.080078,-0.51,10.32,-0.94,0.52,0.39,0.29
9.180054,0.16,9.3,-0.55,0.19,0.09,0.1
9.290039,1.41,9.77,-1.77,0.12,-0.3,0.15
9.390015,-0.08,11.22,2.86,0.65,0.5,-0.13
9.48999,2.86,9.45,-0.2,-0.14,-0.6,-0.32
9.589966,1.37,13.26,-1.26,0.55,-0.14,-0.63
9.690063,-0.35,9.3,-1.02,-0.49,-1.25,-0.29
9.800049,0.59,8.75,-0.08,-0.38,-1.54,0
9.900024,0.2,8.28,-1.22,-0.35,-1.05,0.18
10,0.59,10.28,1.49,-0.06,-1.17,0.09
10.099976,1.92,15.18,2.24,0.14,0.77,0.18
10.200073,2,9.34,-0.39,-0.27,0.23,-0.47
10.310059,1.53,8.47,-0.24,0.63,0.33,0.2
10.410034,0.39,8.94,0.39,0.38,0.56,0.59
10.51001,-0.12,10,-0.27,0.72,0.36,0.34
10.609985,0.47,9.38,0.51,-0.02,-0.08,0.29
10.710083,-0.08,10.79,0.82,0.16,0.5,0.24
10.820068,0.98,12.91,-0.51,0.72,0.87,0.04
10.920044,3.73,11.02,-0.31,0.38,-0.34,0.2
11.219971,0.63,8.75,1.02,-0.43,-0.89,-0.36
11.320068,-1.1,8.08,1.57,0.07,-0.45,0.06
12.339966,2,11.3,-0.35,-0.23,-0.25,-0.37
12.450073,1.29,8.94,-0.63,-0.72,-1,-0.29
13.670044,3.65,10.12,-1.06,-0.25,-1.34,-0.45
13.77002,1.53,11.49,-1.8,-0.29,-1.2,-0.68
13.880005,2,9.1,-0.9,-0.67,-2.22,-0.6
14.180054,-1.06,9.49,0.2,-0.42,-1.13,-0.26
14.280029,-0.63,11.06,3.06,-0.45,-0.09,-0.77
14.390015,2.39,8.67,-1.45,0.06,-0.33,-1.14
14.48999,2.12,8.79,2.2,0.54,-1.52,-0.18
14.589966,0.67,8.16,0.51,0.36,-0.68,0.19
14.690063,0.75,9.92,0.78,0.49,-0.47,0.25
14.790039,-0.35,9.69,-1.61,0.86,0.46,0.24
14.900024,1.41,10.59,-0.2,-0.05,-0.45,0.29
15,0,11.69,0.24,0.28,0.82,-0.21
15.099976,4.71,10.71,-0.35,0.23,-0.49,-0.16
15.200073,2.94,11.1,0.63,-0.08,-0.64,-0.4
15.300049,0.67,8.83,0.2,-0.48,-0.83,-0.17
15.410034,0.51,11.06,0.63,-0.33,-1.39,-0.21
15.51001,0.35,7.73,0.75,-0.54,-1.42,-0.31
15.609985,-2.31,7.96,1.69,-0.2,-0.94,-0.53
15.710083,3.88,16.04,0.12,-0.5,-0.98,-0.52
15.810059,2,8.2,-0.08,-0.04,-0.04,-0.1
15.920044,1.49,9.69,0.9,0.34,-1.29,0.1
16.02002,0.86,9.18,0.51,0.64,-0.44,0.42
16.119995,0.86,10.08,-0.31,0.48,-0.51,0.22
16.219971,1.1,9.53,-0.16,0.07,-0.44,0.17
16.320068,0.39,10.36,0.9,0.12,-0.11,0.22
16.430054,0.55,13.57,-0.9,0.61,0.68,0.19
16.530029,4.2,10.16,0.08,-0.34,-1,-0.23
16.630005,0.78,10.94,-1.1,-0.31,-0.79,-0.41
16.72998,1.88,8.98,-0.35,-0.51,-1.54,-0.54
16.830078,0.94,9.26,0.55,-0.47,-1.59,-0.33
16.940063,0.51,8.79,0.86,-0.31,-1.21,-0.04
17.040039,0.55,10.12,1.29,-0.23,-0.88,-0.31
17.140015,-0.63,9.96,3.26,0.34,0.37,0.28
17.23999,4.86,11.89,-3.69,-0.33,-0.15,-0.78
17.339966,4.12,8.32,0.31,0.36,-0.25,0.08
17.450073,1.33,8.28,1.02,0.47,0.47,0.55
17.550049,0.78,9.69,0.24,0.54,0.42,0.29
17.650024,1.06,8.98,0.63,0.42,0.36,0.02
17.75,0.75,9.38,-0.63,0.34,0.47,0.2
17.849976,-0.04,11.34,1.77,0.7,1.08,0.15
17.960083,5.1,11.53,0.04,0.68,0.32,-0.3
18.060059,5.3,11.06,1.84,0.09,0.95,-0.37
18.160034,0.47,8.16,-0.59,-0.3,0.58,-0.11
18.26001,1.33,9.77,2,-0.24,0.19,0.38
18.359985,-0.78,8.32,1.8,-0.13,0.4,0.06
18.469971,1.1,8.51,2.47,0.17,-0.62,0.08
18.570068,0.98,12.83,3.06,0.11,0.63,-0.24
18.670044,2.82,12.04,-2.16,-0.3,0.71,-0.22
18.77002,3.22,8.79,0.16,0.22,0.5,0.38
18.869995,1.41,8.79,-0.04,0.52,0.82,0.5
18.97998,0.43,10.55,0.43,0.64,0.76,0.25
19.080078,-0.24,9.49,0.43,0.42,0.56,0.22
19.180054,0.47,10,0.08,-0.13,0.17,0.26
19.280029,1.18,10.9,1.29,0.13,-0.31,0.17
19.380005,3.96,12.36,-2.47,0.73,-0.02,-0.13
19.48999,3.37,7.49,-0.27,-0.83,-0.87,-0.61
19.589966,1.45,9.1,-0.9,-0.05,-0.32,-0.48
19.890015,0.27,9.18,0.82,0.02,-0.3,-0.09
20,0.43,12.47,1.29,-0.01,0.02,0.01
20.099976,2.86,11.1,-1.37,-0.31,0.23,-0.37
21.02002,1.22,8.2,-0.86,-0.76,0.81,2
21.119995,0.47,8.24,1.29,0.06,0.99,0.33
21.219971,0.35,7.57,2.2,0.63,1.05,0.31
22.339966,3.57,10.71,-0.16,-0.06,1.24,-0.32
22.650024,-0.43,8.71,0.39,0.28,0.89,0.16
22.75,1.41,10.94,0.67,0.42,-0.43,0.05
22.849976,0.16,11.96,3.33,-0.07,0.61,-0.29
22.950073,4.43,12.75,1.41,-0.48,0.53,-0.42
23.050049,2.9,6.94,-1.61,0.14,1.23,-0.13
23.160034,2.75,10.28,-1.26,0.67,1.35,0.29
23.26001,1.65,8.71,-0.71,0.64,1.82,0.4
23.359985,1.1,9.57,-0.27,0.76,1.87,0.42
23.460083,0.43,10.2,-1.02,0.64,1.65,0.02
23.560059,1.1,10.32,0.08,0.41,0.56,0.35
23.670044,1.57,13.14,0.04,0.4,1.68,0.07
23.77002,3.41,9.38,-1.02,-0.19,0.49,-0.21
23.869995,1.8,11.14,-2.24,-0.08,0.74,-0.38
23.969971,-0.2,7.49,-0.24,-0.61,-0.41,-0.4
24.070068,0,9.3,1.1,-0.25,-0.22,-0.03
24.180054,0.78,9.89,0.59,0.3,0.11,0.08
24.280029,-0.2,10.2,3.33,-0.23,-0.71,-0.01
24.380005,0.35,15.38,4.79,0.02,0.45,-0.54
24.47998,2.47,8.79,-1.92,-0.57,0.24,-0.41
24.589966,1.73,8.83,0.04,0.38,-0.1,0.22
24.690063,0.27,10,-0.24,0.04,0.01,0.36
24.790039,0.78,9.89,-0.43,0.35,0.17,0.4
24.890015,0.35,9.69,0.04,0.31,0.29,0.4
24.98999,0.71,10.2,0,0,0.05,0.01
25.099976,0.35,12.36,1.41,0.71,0.8,0.14
25.200073,1.8,12.59,-5.96,1.17,0.66,-0.1
25.300049,2.04,10.12,-1.49,-0.37,-0.7,-0.31
25.400024,0.86,9.45,-1.29,-0.38,-1.05,-0.28
25.5,0.71,9.77,-0.67,-0.38,-1.43,-0.24
25.609985,0.08,7.69,0.98,-0.27,-1.39,0.23
25.710083,-0.27,9.61,-0.63,0.02,-0.6,-0.22
25.810059,0.9,15.49,1.1,-0.26,0.22,-0.36
25.910034,2.59,8.94,-2.82,-1.17,-0.24,-0.56
26.01001,1.73,8.32,0.12,0.67,-0.48,0.27
26.119995,0.82,9.06,0.27,0.18,0.1,0.39
26.219971,0.43,9.77,0.43,0.34,0.16,0.4
26.320068,0.78,10.08,0.51,0.33,0.3,0.37
26.420044,0.63,10.59,1.06,0.09,0.14,0.18
26.52002,1.33,13.02,-0.16,0.73,0.97,-0.06
26.630005,3.88,10.32,-0.39,0.06,0.07,0.07
26.72998,1.84,11.73,-1.02,0.04,0.48,-0.19
26.830078,1.53,7.41,-0.24,-0.52,-0.84,-0.2
26.930054,0.27,9.18,1.18,-0.25,-0.52,-0.09
27.030029,-0.55,9.77,1.14,0.2,-0.13,-0.02
27.140015,1.02,10.75,2.98,-0.37,-1.18,0.05
27.23999,4.35,13.57,-1.02,-0.05,0,-0.58
27.339966,2.16,8.63,-1.18,-0.26,0.38,-0.44
27.440063,1.53,9.69,0.27,0.66,-0.23,0.55
27.540039,-0.2,9.96,-0.43,0.29,-0.15,0.37
27.650024,0.35,8.79,0.47,0.3,-0.34,0.14
27.75,0.67,9.57,-1.02,0.17,-0.18,0.09
27.849976,0.9,12.24,1.61,0.18,-0.01,0.32
27.950073,1.69,12.51,-3.53,0.71,0.75,-0.57
28.050049,2.35,9.85,-0.63,-0.39,-0.7,-0.26
28.359985,-0.24,8.43,1.61,-0.21,-1.5,-0.04
28.460083,0.12,10.83,-0.08,-0.56,-1.49,-0.1
28.560059,0.59,13.02,2.43,-0.43,0.03,-0.41
28.670044,1.77,10.98,-2.94,-0.06,-0.39,-0.62
29.47998,0.94,10.98,-2.63,-0.54,-1.58,98-0.50
29.580078,2.08,9.18,-1.14,-0.61,-2.27,-0.35
31.619995,1.57,8.9,-1.45,-0.67,-0.3,-0.28
31.72998,1.26,9.89,0.16,0.57,-0.96,0.3
31.830078,-0.31,9.06,0.31,0.45,-0.4,0.28
31.930054,0.35,9.92,-0.59,0.65,-1.08,0.28
32.030029,0.12,9.65,-1.06,0.11,-0.41,0.23
32.130005,0.9,10.87,-0.55,0.19,-0.54,0.18
32.23999,0.75,13.77,-1.96,0.8,0.36,-0.2
32.339966,2.59,10.36,-1.1,-0.63,-0.71,-0.02
32.440063,1.33,9.65,-1.96,-0.45,-0.83,-0.36
32.540039,0.98,8.55,-0.75,-0.42,-1.33,-0.43
32.640015,0.75,9.41,-0.08,-0.17,-1.05,-0.15
32.75,0.27,8.59,-0.51,-0.12,-0.87,0.33
32.849976,-1.02,10,1.41,-0.27,-0.51,0.04
32.950073,3.3,15.53,-2.35,0.55,0.2,-1.17
33.050049,2.67,9.53,-1.14,-0.72,-0.42,-0.34
33.150024,2.71,8.71,0.71,0.31,-0.51,0.15
33.26001,0.98,9.53,-0.35,0.29,0.42,0.51
33.359985,-0.2,9.81,0.27,0.64,0.96,0.38
33.460083,1.02,10,0.04,0.1,0.08,0.11
33.560059,0.2,10.98,1.1,0.3,0.81,0.23
33.660034,2,11.85,0.12,0.62,1,0.11
33.77002,4,10.55,1.65,-0.13,0.73,0.11
33.869995,2.24,9.49,-3.26,-0.41,1,-0.34
33.969971,1.33,7.61,0.75,-0.39,-0.15,0.33
34.070068,0.67,8.87,2,0.33,0.55,0.41
34.170044,1.8,11.02,1.45,0.13,0.37,0.3
34.280029,3.37,12.59,3.06,-0.04,0.13,-0.21
34.380005,3.77,9.18,-1.1,-0.12,0.96,-0.37
34.47998,2.35,9.89,-0.12,0.31,0.37,0.13
34.580078,1.33,9.38,0.12,0.41,0.7,0.16
34.680054,0.43,9.85,-0.31,0.66,0.39,0.22
34.780029,1.22,9.61,-0.04,0.33,-0.17,0.23
34.890015,0.51,9.65,-0.75,-0.01,-0.03,0.08
34.98999,1.49,12.55,1.1,0.19,0.19,0.09
35.089966,4.2,10.24,-0.98,-0.24,-0.46,0.15
35.190063,2.31,11.89,-0.67,-0.28,-0.13,-0.28
35.300049,1.84,7.96,-1.06,-0.74,-1.23,-0.45
35.400024,1.29,8.16,1.37,-0.46,-1.33,-0.16
35.5,0.63,8.9,2.12,0.24,-0.73,0.19
35.599976,0.78,10.28,1.88,-0.02,-0.88,-0.06
35.700073,4.94,14.4,1.53,0.1,-0.47,-0.35
35.810059,4.71,8.08,-3.14,-0.47,0.2,-0.24
35.910034,2.98,8.63,0.24,0.6,0.81,0.18
36.01001,1.14,9.61,0.16,0.61,1.27,-0.22
36.109985,1.18,8.83,-0.47,0.28,0.86,0.07
36.210083,1.14,9.49,0.94,0.31,0.59,0.32
36.320068,-0.31,10.63,-0.16,0.31,1.1,-0.3
36.420044,2.94,11.92,1.49,0.33,1.07,0.09
36.52002,3.3,10.79,1.41,-0.09,1.04,0.15
36.619995,2.51,9.18,-0.08,-0.35,1.01,0.01
36.719971,0.9,8.12,1.02,0.08,1.2,0.41
36.830078,0.31,8.16,1.92,0.51,1.04,0.32
37.130005,4.79,12,0.27,-0.33,0.44,-0.3
37.440063,0.9,10.4,-0.31,0.63,1.55,0.37
38.25,0.35,9.65,0.51,0.22,0.7,0.19
38.560059,1.88,13.3,0.78,0.06,1.2,-0.85
39.380005,0.82,12.4,-0.35,0.48,1.75,-0.03
40.089966,4.12,12.08,-0.55,-0.09,0.25,-0.68
40.190063,2.9,8.59,-0.59,-0.3,0.36,-0.16
40.290039,2.24,9.38,-0.75,0.53,0.64,0.38
40.400024,0.71,9.45,-0.12,0.54,0.87,0.43
40.5,-0.2,9.57,0.39,0.3,0.44,0.29
40.599976,0.04,9.73,-0.31,0.24,0.37,0.17
40.700073,0.63,10.12,0.75,0.07,-0.04,0.17
40.800049,0.31,13.45,0.39,0.7,0.96,0.16
40.910034,2.04,9.92,-2.59,-0.07,-0.44,-0.09
41.01001,1.69,11.14,-1.22,-0.19,-0.26,-0.38
41.109985,1.02,8.79,-0.78,-0.52,-1.02,-0.4
41.210083,0.75,9.45,0.31,-0.46,-1.39,0
41.310059,-0.51,8.9,1.18,-0.1,-0.88,0.12
41.420044,0.16,9.73,0.24,-0.12,-0.99,-0.11
41.52002,2.2,15.46,0.39,-0.19,0.27,-0.64
41.619995,2.39,8.63,0.27,-0.8,-0.46,-0.47
41.719971,1.69,8.9,-0.75,0.4,-0.36,0.2
41.820068,0.78,9.02,0.12,0.26,0.22,0.56
41.930054,0.27,9.49,0.43,0.36,0.18,0.24
42.030029,0.43,9.73,1.14,0.13,0.12,0.27
42.130005,0.39,10.4,0.98,0.14,0.07,0.23
42.22998,1.29,12.94,-0.47,0.8,0.83,-0.14
42.330078,4.08,10.43,-0.35,-0.04,-0.11,-0.12
42.440063,2.47,11.1,-0.04,-0.01,0.36,-0.35
42.540039,1.49,7.49,-0.16,-0.28,-0.42,-0.16
42.640015,0.67,8.75,1.84,-0.07,-0.53,0.11
42.73999,-0.47,8.98,0.98,0.24,0.04,-0.23
42.839966,0.08,11.61,5.02,-0.18,-0.31,-0.24
42.950073,2.63,11.65,0.16,0.16,0.01,-0.4
43.050049,2.08,7.77,-0.27,0.1,0.08,-0.05
43.150024,2.08,10.47,-0.04,0.44,-0.24,0.73
43.25,0.71,10.43,0.16,0.1,-0.11,0.39
43.349976,0.12,8.83,1.14,0.16,-0.12,0.16
43.460083,0.94,9.06,-0.35,0.29,-0.05,0.08
43.560059,1.53,11.34,2.08,0.59,0.61,0.34
43.660034,2.28,13.14,-2.43,0.33,0.32,-0.18
43.76001,2.98,10.24,0.35,-0.34,-0.64,-0.28
43.859985,0.98,8.59,-0.71,-0.52,-0.87,-0.38
43.969971,1.53,8.43,0.27,-0.27,-1.52,-0.25
44.070068,0.43,8.43,1.18,-0.16,-1.21,0.13
44.170044,0.27,10.51,1.69,-0.06,-0.85,-0.36
44.27002,-0.55,10.87,2.9,-0.45,-0.15,-0.43
44.369995,2.31,12.63,1.57,-0.17,-0.52,-0.62
44.47998,1.45,8.43,-1.26,0.17,-0.81,-0.09
44.580078,1.73,9.53,0.16,0.22,-0.88,0.4
44.680054,0.9,9.38,0.04,0.33,-0.38,0.25
44.780029,0.43,9.69,0.98,0.2,-0.38,0.2
44.880005,0.59,9.57,-0.67,0.04,0.14,0.13
44.98999,1.22,11.14,1.73,0.07,0.11,0.28
45.089966,1.45,13.02,-2.94,0.59,0.28,-0.02
45.190063,3.14,9.41,-0.47,-0.46,-1.12,-0.49
45.290039,1.37,9.18,-1.02,-0.4,-1,-0.55
45.390015,1.53,9.49,-0.27,-0.43,-1.86,-0.33
45.700073,1.49,10.47,2.16,-0.26,-1.69,0
45.800049,0.31,10.51,2.31,-0.38,0.01,-0.47
45.900024,2.43,10.04,-0.08,-0.27,-0.78,-0.7
48.349976,1.29,12.71,-0.78,-0.21,-0.46,-0.41
48.660034,-0.2,9.22,1.06,-0.24,-1,-0.09
48.76001,0.94,9.41,1.14,-0.57,-1.77,-0.46
48.859985,1.84,13.02,1.77,-0.01,0.08,-0.43
48.960083,2.55,10.24,-1.22,-0.13,-0.46,-0.34
49.070068,1.77,9.41,0.94,0.4,-1.26,-0.13
49.170044,0.86,9.26,0.78,0.12,-0.74,0.15
49.27002,0.82,9.92,0.51,0.34,-0.53,0.26
49.369995,0.9,9.38,1.18,0.22,-0.28,0.1
49.469971,1.18,9.73,0.51,0.13,-0.15,0.14
49.580078,1.41,11.65,1.96,0.46,0.43,0.24
49.680054,2.55,11.49,-1.77,0.22,0.08,-0.02
49.780029,2.12,11.69,-0.08,-0.24,-0.37,-0.52
49.880005,1.65,8.2,-0.35,-0.72,-0.92,-0.64
49.97998,1.33,8.47,1.49,-0.45,-1.34,-0.33
50.089966,0.12,8.75,2.12,0.07,-0.36,0.08
50.190063,-0.27,9.65,1.26,0.01,-0.24,-0.14
50.290039,1.18,13.77,3.49,0.01,0.1,-0.59
50.390015,2.79,8.71,-2.47,-0.4,0.56,-0.57
50.48999,1.65,8.55,1.26,0.5,-0.04,0.17
50.599976,0.67,9.3,1.61,-0.2,-0.28,0.01
50.700073,0.24,8.32,2.08,0.48,0.34,0.19
50.800049,-0.08,8.75,1.69,0.28,0.95,0.19
50.900024,0.47,9.69,2.04,0.03,0.64,0.24
51,1.18,11.89,1.77,0.82,1.26,0.2
51.109985,3.02,10.59,-0.39,-0.15,0.93,0.43
51.210083,3.18,11.57,-0.98,0.3,1.06,0.12
51.310059,0.86,8.43,1.77,-0.19,0.32,0.34
51.410034,0.27,8.98,2.9,0.04,0.13,0.23
51.51001,0.35,8,2.39,-0.16,0.09,0.2
51.619995,2,9.65,4.79,0.02,-1.02,-0.21
51.719971,1.96,11.49,4.63,0.06,0.22,-0.28
51.820068,2.94,8.71,-2.9,-0.46,-0.28,-0.18
51.920044,1.8,9.85,0.71,0.77,0.41,-0.01
52.02002,1.14,8.51,0.78,0.32,0.5,0.18
52.130005,0.67,9.06,0.75,0.61,0.9,0.22
52.22998,0,9.49,0.94,0.35,0.45,0.15
52.330078,0.31,9.41,1.57,0.13,0.16,0.15
52.430054,0.59,12.08,2.12,0.48,0.57,0.26
52.530029,2.75,12,-3.41,0.42,0.37,-0.36
52.630005,2.35,10.63,0.82,-0.16,-0.56,-0.36
52.73999,1.33,9.3,-0.59,-0.4,-0.31,-0.45
52.839966,0.75,8.39,0.12,-0.17,-1.12,-0.17
52.940063,0,7.57,1.92,-0.21,-0.69,0.06
53.040039,0.08,9.77,2.31,0.17,-0.06,-0.04
53.140015,0.55,13.14,4,0.18,0.62,-0.04
53.25,3.73,11.18,0.55,-0.05,-0.03,-0.38
53.349976,2.59,9.69,1.88,0.45,0.47,0.1
53.450073,1.57,9.26,0.43,0.24,1.05,0.44
53.550049,0.55,9.89,1.1,0.42,1.36,0.54
53.859985,0.31,9.45,1.69,0.26,0.6,0.61
54.170044,2.35,10.4,-0.9,-0.08,1.26,0.08
54.27002,1.22,7.88,1.02,-0.22,0.48,0.6
54.369995,0.67,9.18,1.1,0.38,0.96,0.35
55.390015,0.82,9.81,0.82,0.19,0.74,0.29
56.609985,-0.24,10.12,0.67,0.44,1.61,0.5
57.119995,1.61,9.45,0.55,-0.14,0.61,-0.32
57.22998,0.63,8.79,0.43,-0.39,-0.07,-0.09
57.330078,0.27,8.75,1.77,-0.07,-0.33,0.17
57.430054,-0.12,8.12,1.49,0.1,-0.03,-0.03
57.530029,-0.35,11.96,4.63,-0.12,-0.21,-0.12
57.630005,2.51,12.16,0.35,-0.18,0.16,-0.36
57.73999,2.98,9.1,0.31,-0.12,-0.37,0.11
57.839966,2.08,9.45,0.2,0.38,0.13,0.32
57.940063,0.63,9.06,0.12,0.97,0.53,0.49
58.040039,-0.04,9.1,0.9,0.3,0.32,0.3
58.140015,0.71,9.81,-0.63,0.08,-0.05,0.18
58.25,1.18,11.73,2.63,-0.01,0.27,0.32
58.349976,1.92,13.73,-2.47,0.5,0.42,0.09
58.450073,2.71,8.28,0.82,-0.17,-0.14,-0.47
58.550049,1.18,9.45,-0.94,-0.47,-0.45,-0.38
58.650024,1.41,8.87,0.08,-0.28,-1.58,-0.09
58.76001,0.47,9.61,0.51,-0.14,-1.25,-0.2
58.859985,-0.04,9.02,1.73,-0.26,-1.16,-0.1
58.960083,0.12,9.77,2.79,-0.28,-0.38,-0.12
59.060059,3.26,13.3,0.63,0.26,0.28,-0.84
59.160034,0.47,6.9,1.1,-0.83,-0.07,-0.35
59.27002,1.88,9.3,1.06,0.48,-0.71,0.16
59.369995,0.67,9.53,1.22,0.24,-0.2,0.28
59.469971,0.35,8.79,1.65,0.28,0.15,0.38
59.570068,0.78,9.53,0.94,0.25,0.2,0.23
59.670044,0.82,10.12,2.71,0.15,-0.24,0.19
59.780029,1.88,11.61,1.41,0.8,0.93,-0.28
59.880005,3.37,10.32,-0.43,-0.02,-0.18,0.13
59.97998,3.57,10.79,0.78,-0.41,-0.31,-0.35
60.080078,1.57,9.3,1.88,-0.49,-0.24,-0.27
60.180054,0.39,8.67,1.84,-0.12,-0.33,-0.34
60.290039,-0.63,8.47,3.49,0.39,0.06,-0.02
60.390015,2.28,10.98,3.53,-0.15,-0.56,0
60.48999,1.33,13.45,3.61,0.15,0.7,-0.46
60.589966,0.78,8.39,-0.04,-0.12,-0.17,-0.18
60.690063,2.2,10.98,-0.12,0.07,-0.45,0.58
60.800049,0.16,9.77,0.78,0.48,0.2,0.35
60.900024,-0.04,9.41,0.39,0.5,0.07,0.18
61,0.63,9.65,-0.27,0.08,-0.37,0.23
61.099976,-0.16,11.38,2.75,0.32,0.47,0.27
61.200073,2.94,12.67,-2.9,0.42,-0.21,-0.32
61.310059,2.59,10.75,0.51,-0.17,-0.65,-0.25
61.410034,1.14,9.3,-0.55,-0.49,-0.66,-0.59
61.51001,0.71,8.9,0.98,-0.22,-1.32,-0.1
61.609985,-0.04,8.32,1.88,-0.04,-0.72,-0.04
61.710083,-0.55,9.73,1.49,-0.35,-0.81,-0.32
61.820068,-0.82,8.79,3.88,-0.44,-0.3,-0.27
61.920044,1.45,12.43,1.49,0.41,-0.47,-0.43
62.02002,1.14,8.43,-0.9,-0.1,-0.55,-0.21
62.119995,1.02,9.81,0.78,0.52,-0.59,0.34
62.430054,0.51,9.53,0.71,0.12,-0.2,0.15
62.530029,0.63,10.28,1.22,-0.02,-0.19,0.22
63.040039,1.22,10.47,0.55,-0.32,-2.13,-0.33
63.140015,0.55,8.24,0.51,-0.39,-1.95,-0.3
63.23999,-0.12,10.51,1.18,-0.4,-1.73,-0.39
63.349976,-0.04,10.55,2.75,-0.48,-1.32,-0.38
65.080078,2.2,7.1,-1.77,-0.28,0.77,-0.3
65.589966,-0.63,9.61,0.71,0.01,0.05,0.11
65.690063,0.31,10.94,2.12,-0.05,-0.23,0.27
65.790039,1.33,12.87,-2.67,0.82,0.39,-0.11
65.890015,2.55,9.06,-0.51,-0.38,-0.99,-0.47
66,1.41,10.08,-0.75,-0.54,-1.28,-0.49
66.099976,0.9,9.26,-0.31,-0.33,-1.74,-0.43
66.200073,1.02,9.22,0.43,-0.22,-1.7,-0.29
66.300049,-0.82,8.94,1.69,-0.22,-1.36,-0.24
66.410034,0.35,10.4,1.22,-0.11,-1.28,-0.25
66.51001,1.57,13.61,2.86,0.06,0.06,-0.99
66.609985,1.73,8.71,-1.33,-0.52,-0.13,-0.38
66.710083,1.84,8.63,0.82,0.46,-0.58,0.16
66.810059,0.27,9.73,0.78,0.36,0.03,0.36
66.920044,0.08,8.94,0.39,1.44,0.56,0.01
67.02002,-0.59,10.67,-0.27,0,0.04,0.33
67.119995,0.82,9.92,-1.49,0.06,-0.23,0.3
67.219971,-0.27,12.32,1.14,0.27,0.51,0.32
67.320068,2.94,12.87,-3.96,0.48,0.02,-0.45
67.430054,3.8,9.26,-0.16,-0.32,-0.26,0.13
67.530029,1.45,10.32,-0.47,-0.08,0.11,-0.28
67.630005,1.26,8.51,-0.47,-0.31,-0.56,-0.15
67.72998,0.12,9.1,0.78,-0.05,-0.35,0.12
67.830078,-0.63,9.18,1.88,0.16,-0.19,0.21
67.940063,0.35,10.75,1.1,0.15,-0.42,0.02
68.040039,-0.55,12.47,4.04,0.13,0.45,-0.87
68.140015,2.63,8.32,-2.59,-0.46,-0.04,-0.2
68.23999,3.3,9.53,-0.35,0.18,0.22,0.51
68.339966,1.37,9.49,0.12,0.27,0.83,0.42
68.450073,0.59,10,0.08,0.72,1.46,0.37
68.550049,0.39,9.53,0,0.49,0.95,0.3
68.650024,0.9,10.2,0.12,0.42,0.68,0.25
68.75,1.14,11.65,1.22,0.55,1,0.3
68.849976,3.69,10.79,-4.16,0.37,0.38,-0.08
68.960083,2.79,10.47,0.67,-0.39,0.27,-0.16
69.060059,1.37,8.32,-0.82,-0.6,-0.21,-0.31
69.160034,1.1,9.18,1.14,-0.28,-0.33,-0.02
69.26001,0.82,8.55,1.06,0.04,-0.11,0
