NAME:,walk_123_2_1.csv,,,,,
EXPERIMENT TIME:,08/03/2024 09:46:38,,,,,
ACTIVITY TYPE:,Walking,,,,,
COUNT OF ACTUAL STEPS:,112,,,,,
,,,,,,
Time [sec],ACC X,ACC Y,ACC Z,GYRO X,GYRO Y,GYRO Z
.0000,-9.57,6.32,6.24,-1.40,0.34,-0.60
.0820,-9.89,3.73,3.73,0.40,0.31,-0.01
.1640,-7.77,2.20,2.04,-0.41,0.31,0.28
.2460,-7.77,3.14,2.39,-0.34,0.24,0.39
.3280,-6.90,2.28,1.10,-0.33,0.03,0.14
.4100,-10.90,4.00,2.12,-0.67,-0.28,0.09
.4920,-13.18,0.08,-0.39,0.05,0.20,-0.24
.5740,-14.40,9.57,7.73,0.80,-0.43,0.43
.6560,-8.71,3.41,4.00,0.30,-0.01,-0.01
.7380,-7.92,4.39,3.41,-0.21,-0.53,0.05
.8200,-6.35,2.86,3.37,0.34,-0.60,-0.33
.9020,-8.24,2.04,3.26,0.24,-0.37,-0.02
.9840,-9.02,2.43,2.20,0.38,0.07,-0.01
1.0660,-10.63,3.14,2.39,0.54,-0.20,0.20
1.1480,-12.40,3.53,2.28,0.56,-0.08,-0.31
1.2300,-8.94,3.30,5.73,-0.76,0.17,-0.85
1.3120,-11.45,5.61,5.33,-0.50,0.15,-0.51
1.3940,-6.75,1.69,2.55,0.39,0.48,0.36
1.4760,-6.75,2.47,1.96,-0.24,0.20,0.68
1.5580,-6.39,2.82,1.10,-0.42,0.17,0.16
1.6400,-10.12,1.65,0.86,-0.28,0.01,-0.06
1.7220,-14.16,2.43,0.31,-0.32,-0.05,0.06
1.8040,-16.28,7.06,7.10,0.63,-0.28,0.37
1.8860,-8.94,3.73,3.92,0.23,0.12,0.08
1.9680,-7.61,4.16,3.61,-0.35,-0.71,0.05
2.0500,-6.32,3.14,3.69,0.35,-0.80,-0.25
2.1320,-7.26,2.28,3.45,0.32,-0.43,0.02
2.2140,-10.32,3.06,3.26,0.76,0.18,-0.03
2.2960,-12.55,1.80,1.02,0.42,-0.08,-0.03
2.3780,-13.06,3.37,3.49,0.53,-0.10,-0.23
2.4600,-9.85,4.39,5.49,-1.41,-0.03,-0.92
2.5420,-10.71,5.84,4.86,0.13,0.25,-0.02
2.6240,-6.86,2.28,1.96,0.18,0.36,0.34
2.7060,-7.37,2.16,2.16,-0.05,-0.01,0.46
2.7880,-7.96,2.75,1.33,-0.19,0.04,0.07
2.8700,-13.26,2.75,1.37,-0.33,0.10,0.01
2.9520,-10.20,2.82,3.45,-0.21,0.34,0.02
3.0340,-5.84,3.18,2.35,0.57,0.27,-0.12
3.1160,-9.45,3.65,4.51,-0.14,-0.51,0.14
3.1980,-7.18,3.77,3.69,-0.18,-0.65,-0.16
3.2800,-6.12,1.65,3.06,0.22,-0.41,-0.06
3.3620,-7.57,2.67,2.79,0.21,-0.03,0.11
3.4440,-10.87,2.43,1.37,0.57,-0.01,0.21
3.5260,-14.04,3.37,3.14,0.37,-0.14,-0.39
3.6080,-9.41,3.77,6.24,-1.13,0.27,-1.15
3.6900,-12.24,6.43,5.41,-0.38,0.29,-0.04
3.7720,-5.41,1.73,1.84,0.37,0.40,0.27
3.8540,-5.81,1.77,1.14,0.26,0.17,0.39
3.9360,-7.57,3.41,1.41,-0.25,0.02,0.14
4.0180,-12.55,3.53,1.14,-0.29,-0.04,-0.01
4.1000,-10.08,1.06,-0.63,0.13,0.28,-0.04
4.1820,-11.85,5.88,2.98,1.05,-0.16,-0.05
4.2640,-9.85,3.73,4.71,0.14,-0.54,-0.06
4.3460,-7.49,3.41,3.49,0.14,-0.76,-0.11
4.4280,-6.28,1.92,3.06,0.41,-0.80,-0.24
4.5100,-7.88,2.39,3.10,0.33,0.00,0.08
4.5920,-10.20,2.55,1.77,0.50,0.12,0.04
4.6740,-13.45,4.35,2.39,0.38,-0.24,-0.25
4.7560,-8.43,6.55,4.94,-0.60,0.31,-0.34
4.8380,-11.06,5.26,6.47,-0.46,-0.05,-0.38
4.9200,-7.49,2.28,3.18,0.23,0.60,0.38
5.0020,-6.04,2.51,1.77,-0.25,0.30,0.54
5.0840,-5.45,2.20,0.94,-0.24,0.02,0.17
5.1660,-11.18,3.06,1.41,-0.69,0.09,0.08
5.2480,-13.65,-0.24,-0.98,-0.06,0.39,0.05
5.3300,-13.02,13.14,5.92,0.65,-0.68,0.76
5.4120,-7.65,1.57,3.41,0.17,-0.04,-0.33
5.4940,-7.18,4.31,3.92,-0.08,-1.06,-0.06
5.5760,-6.59,2.20,3.49,0.49,-0.87,-0.31
5.6580,-8.32,2.82,3.69,0.55,-0.31,0.02
5.7400,-9.92,1.22,1.41,0.60,0.29,-0.03
5.8220,-12.43,3.37,1.49,0.25,-0.10,-0.20
5.9040,-8.51,6.39,7.10,-0.91,0.29,-0.73
5.9860,-11.06,6.00,5.65,-0.43,0.28,-0.41
6.0680,-7.30,0.47,4.47,0.22,0.69,0.35
6.1500,-6.12,2.16,1.88,-0.09,0.31,0.59
6.2320,-6.75,2.75,0.71,-0.48,0.23,0.11
6.3140,-13.06,2.47,1.61,-0.51,0.04,-0.17
6.3960,-13.89,-0.35,-0.12,0.08,0.12,-0.01
6.4780,-10.67,6.98,1.33,0.67,0.51,0.38
6.5600,-9.38,4.31,4.79,-0.19,-0.54,-0.06
6.6420,-7.69,4.24,3.77,0.25,-0.83,-0.22
6.7240,-6.35,1.53,3.10,0.40,-0.66,-0.15
6.8060,-8.00,3.14,3.18,0.47,-0.25,0.15
6.8880,-11.02,1.06,1.77,0.68,0.05,0.02
6.9700,-12.71,3.22,1.69,0.25,-0.19,-0.17
7.0520,-8.36,5.45,5.53,-0.58,0.42,-0.57
7.1340,-10.90,5.84,5.88,-0.53,0.18,-0.42
7.2160,-7.77,2.47,2.75,0.38,0.57,0.29
7.2980,-6.59,1.77,1.37,0.07,0.18,0.61
7.3800,-6.00,1.61,0.00,-0.46,0.05,0.22
7.4620,-11.06,2.71,1.69,-0.61,0.07,-0.15
7.5440,-14.28,-0.20,-0.63,0.11,0.11,0.04
7.6260,-12.67,9.06,3.30,0.71,-0.31,0.54
7.7080,-9.49,3.10,5.14,-0.11,-0.30,-0.10
7.7900,-7.96,4.55,4.16,0.02,-0.80,-0.19
7.8720,-5.88,1.88,3.22,0.46,-0.49,-0.25
7.9540,-8.20,2.82,2.94,0.78,-0.42,0.14
8.0360,-11.53,1.14,1.33,0.78,-0.06,0.09
8.1180,-13.22,2.82,1.77,0.16,-0.11,-0.21
8.2000,-8.43,3.06,6.00,-1.13,0.23,-1.12
8.2820,-12.63,6.59,5.02,-0.75,0.34,-0.15
8.3640,-6.83,0.51,3.57,0.10,0.57,0.40
8.4460,-5.65,2.00,1.33,-0.17,0.17,0.57
8.5280,-7.02,3.02,0.59,-0.49,0.01,0.18
8.6100,-14.91,2.43,1.02,-0.21,-0.05,-0.17
8.6920,-12.59,8.47,8.75,0.08,0.42,0.05
8.7740,-4.63,3.77,2.79,0.43,0.96,0.01
8.8560,-7.65,4.47,3.73,-0.08,-0.68,-0.09
8.9380,-5.26,1.84,2.82,0.32,-0.63,-0.31
9.0200,-7.14,1.96,3.30,0.14,-0.57,0.22
9.1020,-9.41,2.90,2.04,0.50,0.23,0.11
9.1840,-13.89,2.31,0.86,0.48,-0.22,-0.01
9.2660,-10.51,7.96,5.22,-0.60,0.37,-0.32
9.3480,-11.02,5.02,6.90,-0.77,0.04,-0.76
9.4300,-7.53,2.67,3.61,0.52,0.50,0.31
9.5120,-6.00,1.33,0.90,0.19,0.17,0.38
9.5940,-5.69,1.88,0.82,-0.48,-0.11,0.27
9.6760,-12.55,2.71,1.65,-0.41,0.10,-0.40
9.7580,-14.67,0.67,-2.00,0.07,0.11,0.09
9.8400,-14.67,11.92,7.96,0.79,-0.84,0.71
9.9220,-7.30,2.31,4.55,0.21,-0.00,-0.17
10.0040,-8.32,4.43,4.00,-0.11,-0.94,-0.20
10.0860,-5.88,1.80,2.75,0.36,-0.58,-0.18
10.1680,-7.92,2.75,3.22,0.37,-0.31,0.17
10.2500,-10.24,2.00,2.08,0.57,0.25,0.07
10.3320,-12.71,2.47,1.41,0.39,-0.03,-0.07
10.4140,-9.10,6.39,5.92,-0.61,0.40,-0.57
10.4960,-11.18,5.92,6.16,-0.54,0.07,-0.50
10.5780,-7.77,2.20,2.86,0.50,0.54,0.24
10.6600,-6.59,2.00,1.10,0.08,0.25,0.42
10.7420,-6.24,2.16,0.59,-0.50,0.11,0.29
10.8240,-10.67,1.92,0.78,-0.47,0.10,-0.24
10.9060,-13.73,3.10,-1.77,-0.01,0.06,0.21
10.9880,-12.47,11.45,8.59,0.12,-0.78,0.33
11.0700,-8.04,2.75,4.08,0.29,0.04,-0.04
11.1520,-7.65,3.96,3.88,-0.03,-0.95,-0.23
11.2340,-5.92,2.08,2.86,0.44,-0.63,-0.23
11.3160,-7.69,2.39,3.30,0.39,-0.16,0.19
11.3980,-9.10,2.12,1.41,0.53,0.43,0.06
11.4800,-13.85,2.90,1.65,0.57,-0.14,-0.05
11.5620,-9.61,5.49,3.96,-0.47,0.31,-0.41
11.6440,-11.10,5.33,6.12,-0.80,-0.01,-0.72
11.7260,-7.96,2.55,3.49,0.41,0.62,0.18
11.8080,-6.16,1.69,1.61,-0.12,0.26,0.36
11.8900,-6.79,2.08,0.63,-0.44,-0.03,0.30
11.9720,-10.47,2.67,1.18,-0.64,0.28,-0.14
12.0540,-13.53,3.10,-0.27,-0.04,-0.03,0.28
12.1360,-14.20,6.79,9.92,-1.06,0.63,0.48
12.2180,-4.86,2.47,1.26,0.61,0.17,-0.29
12.3000,-9.65,3.45,4.51,-0.32,-0.92,-0.19
12.3820,-5.81,2.55,2.59,0.04,-0.48,-0.13
12.4640,-7.30,2.75,3.57,0.08,-0.40,0.14
12.5460,-9.45,3.10,2.35,0.59,0.39,0.06
12.6280,-13.53,2.31,1.22,0.43,-0.14,-0.01
12.7100,-11.92,4.59,4.59,0.64,-0.12,-0.40
12.7920,-10.98,3.37,6.43,-1.10,-0.04,-1.00
12.8740,-11.06,5.22,4.39,0.25,0.42,0.12
12.9560,-7.02,1.88,1.73,-0.04,0.34,0.32
13.0380,-6.20,2.31,1.53,-0.26,0.13,0.48
13.1200,-7.73,2.67,0.86,-0.41,0.14,0.06
13.2020,-14.98,3.06,1.57,-0.19,-0.20,0.01
13.2840,-7.88,4.79,5.88,-0.19,0.55,-0.15
13.3660,-7.53,4.79,2.04,0.89,0.29,0.05
13.4480,-9.85,4.16,4.75,-0.07,-0.70,-0.12
13.5300,-6.94,3.45,3.45,0.35,-0.70,-0.28
13.6120,-6.98,1.61,3.14,0.47,-0.61,-0.07
13.6940,-8.32,2.43,3.22,0.46,-0.23,0.14
13.7760,-10.75,1.10,0.90,0.53,-0.05,0.02
13.8580,-12.83,3.96,2.12,0.19,-0.14,-0.23
13.9400,-7.41,5.45,7.26,-0.69,0.33,-0.65
14.0220,-10.87,6.71,5.61,-0.18,0.22,-0.44
14.1040,-7.34,1.65,2.39,0.28,0.53,0.33
14.1860,-5.81,2.00,1.49,-0.10,0.33,0.58
14.2680,-6.28,2.55,0.71,-0.52,0.14,0.26
14.3500,-11.22,2.55,1.92,-0.46,0.19,-0.23
14.4320,-13.85,1.18,-1.41,0.09,0.06,0.12
14.5140,-13.61,9.45,4.47,0.47,-0.59,0.25
14.5960,-9.65,3.49,4.98,0.28,0.01,-0.03
14.6780,-7.73,3.96,3.65,-0.09,-0.77,-0.16
14.7600,-6.16,2.16,3.14,0.44,-0.74,-0.28
14.8420,-7.61,2.24,3.18,0.28,-0.28,0.11
14.9240,-9.73,3.02,2.28,0.58,0.40,0.13
15.0060,-12.94,2.39,1.22,0.37,-0.10,-0.08
15.0880,-11.65,4.39,4.04,0.51,-0.00,-0.36
15.1700,-11.65,4.31,6.98,-0.82,-0.21,-0.94
15.2520,-9.77,3.65,3.88,0.39,0.59,0.20
15.3340,-6.47,1.96,1.84,-0.07,0.41,0.41
15.4160,-6.59,2.31,1.53,-0.29,0.08,0.43
15.4980,-8.59,2.39,1.18,-0.39,0.06,-0.15
15.5800,-14.79,4.00,1.96,-0.56,-0.29,0.21
15.6620,-9.34,1.14,4.12,0.01,0.31,-0.03
15.7440,-10.83,7.61,3.45,0.52,0.27,0.30
15.8260,-9.22,2.90,4.04,-0.04,-0.17,-0.18
15.9080,-7.88,4.12,4.00,0.06,-0.84,-0.12
15.9900,-6.63,2.20,3.65,0.33,-0.61,-0.10
16.0720,-8.32,2.71,3.69,0.47,-0.36,0.06
16.1540,-9.65,1.10,0.78,0.61,0.08,-0.09
16.2360,-12.91,4.00,1.49,0.38,-0.20,-0.14
16.3180,-9.30,6.16,6.71,-0.68,0.33,-0.59
16.4000,-10.63,5.61,5.84,-0.40,0.22,-0.28
16.4820,-7.49,2.31,2.67,0.38,0.61,0.26
16.5640,-6.16,2.24,1.69,-0.05,0.35,0.52
16.6460,-6.86,3.45,1.53,-0.28,0.10,0.22
16.7280,-11.49,2.16,1.18,-0.20,-0.00,-0.17
16.8100,-12.98,1.69,-1.18,-0.12,0.25,0.09
16.8920,-13.10,11.45,8.90,0.30,-0.64,0.49
16.9740,-7.06,2.51,3.53,0.54,0.09,-0.32
17.0560,-7.85,3.30,3.53,0.07,-0.83,-0.19
17.1380,-6.43,2.28,3.22,0.43,-0.78,-0.28
17.2200,-8.47,2.43,3.73,0.37,-0.18,0.06
17.3020,-9.26,2.86,2.55,0.46,0.23,0.02
17.3840,-12.28,2.12,1.26,0.49,-0.12,0.19
17.4660,-12.51,2.94,2.28,0.50,-0.07,-0.25
17.5480,-9.22,3.33,6.32,-1.33,0.02,-0.69
17.6300,-9.77,5.26,4.16,-0.08,0.47,-0.16
17.7120,-6.39,1.88,1.88,0.11,0.49,0.33
17.7940,-7.06,2.94,2.24,-0.42,0.30,0.62
17.8760,-7.06,2.35,1.14,-0.15,0.24,0.02
17.9580,-10.55,2.63,1.37,-0.51,0.10,0.02
18.0400,-13.22,0.67,-0.59,-0.08,0.04,0.06
18.1220,-14.16,9.45,7.37,-0.02,-0.03,0.63
18.2040,-7.41,2.79,3.53,0.16,0.20,-0.01
18.2860,-7.22,3.80,3.57,-0.41,-0.72,-0.03
18.3680,-6.59,2.75,3.26,0.16,-0.58,-0.16
18.4500,-7.18,2.55,3.10,0.12,-0.15,0.15
18.5320,-10.16,3.41,2.98,0.56,0.02,0.11
18.6140,-12.75,1.92,1.80,0.38,-0.15,0.05
18.6960,-12.87,5.22,4.35,0.44,-0.06,-0.15
18.7780,-9.69,4.16,5.92,-1.03,-0.08,-0.86
18.8600,-10.51,5.10,4.00,-0.08,0.39,0.13
18.9420,-6.24,2.31,1.77,-0.02,0.41,0.33
19.0240,-6.47,2.59,1.96,-0.25,0.15,0.42
19.1060,-8.16,2.28,1.33,-0.33,0.07,0.10
19.1880,-14.08,3.41,1.69,-0.45,-0.01,-0.06
19.2700,-11.30,4.47,6.75,-0.05,0.42,-0.03
19.3520,-3.96,4.79,2.20,0.51,0.88,-0.12
19.4340,-8.94,3.84,4.12,0.14,-0.55,-0.11
19.5160,-6.59,3.41,3.41,0.25,-0.67,-0.27
19.5980,-6.94,1.80,3.69,0.39,-0.80,-0.08
19.6800,-8.08,3.30,2.94,0.36,0.10,0.08
19.7620,-10.47,1.96,2.00,0.50,-0.11,0.13
19.8440,-12.79,3.45,2.20,0.50,-0.12,-0.12
19.9260,-7.96,6.63,4.82,-0.98,0.55,-0.33
20.0080,-10.59,6.63,5.41,-0.52,0.08,-0.54
20.0900,-7.14,2.04,2.71,0.43,0.58,0.24
20.1720,-6.67,2.20,1.84,-0.17,0.26,0.44
20.2540,-6.86,2.63,1.02,-0.40,-0.11,0.26
20.3360,-10.71,2.20,0.71,-0.35,0.13,-0.19
20.4180,-13.57,1.69,-0.71,-0.02,-0.05,0.10
20.5000,-16.24,9.61,12.20,-0.29,0.26,0.69
20.5820,-5.30,2.94,2.94,0.42,0.33,-0.16
20.6640,-7.61,4.04,3.80,-0.10,-0.78,-0.07
20.7460,-6.12,2.63,3.26,0.52,-0.69,-0.39
20.8280,-8.20,2.47,3.53,0.31,-0.44,0.09
20.9100,-8.79,2.71,2.00,0.51,0.24,-0.12
20.9920,-12.24,2.75,2.08,0.66,-0.30,0.25
21.0740,-12.51,2.55,1.10,0.57,-0.01,-0.29
21.1560,-9.45,4.00,5.53,-1.28,0.12,-0.69
21.2380,-9.61,6.20,4.08,-0.03,0.14,-0.31
21.3200,-6.35,2.20,2.24,0.30,0.42,0.39
21.4020,-5.81,2.90,1.73,-0.14,0.13,0.53
21.4840,-7.69,2.82,1.26,-0.03,-0.17,0.13
21.5660,-11.30,2.08,1.29,-0.38,0.06,-0.08
21.6480,-14.00,1.26,-0.71,-0.00,-0.02,-0.01
21.7300,-13.53,13.10,6.43,0.19,-0.38,0.61
21.8120,-7.69,2.35,4.12,0.42,0.13,-0.09
21.8940,-7.34,3.57,3.33,-0.20,-0.72,-0.03
21.9760,-5.88,2.31,3.10,0.26,-0.65,-0.29
22.0580,-8.04,2.86,3.49,0.21,-0.31,0.06
22.1400,-9.02,3.02,2.16,0.49,0.30,-0.09
22.2220,-12.59,2.59,1.18,0.61,-0.14,-0.01
22.3040,-11.41,5.37,4.20,0.80,-0.27,-0.49
22.3860,-10.90,5.53,7.02,-0.96,0.05,-0.80
22.4680,-9.81,3.77,3.45,0.51,0.54,0.19
22.5500,-5.53,1.80,1.41,-0.11,0.37,0.44
22.6320,-5.84,2.51,1.29,-0.44,0.10,0.39
22.7140,-9.14,2.55,1.02,-0.41,0.21,-0.28
22.7960,-13.45,3.73,0.59,-0.25,0.03,0.12
22.8780,-10.67,8.59,7.81,-0.91,0.51,-0.04
22.9600,-7.06,4.24,2.67,1.12,0.26,0.02
23.0420,-8.67,3.22,4.04,-0.05,-0.95,-0.42
23.1240,-5.88,2.94,3.45,0.35,-0.60,-0.17
23.2060,-7.61,2.75,3.69,0.46,-0.42,-0.03
23.2880,-9.73,2.43,2.43,0.96,0.26,-0.10
23.3700,-12.75,1.92,0.51,0.67,-0.25,0.12
23.4520,-11.81,3.14,1.29,0.35,-0.13,-0.17
23.5340,-9.65,3.49,5.96,-1.42,0.01,-0.83
23.6160,-11.10,5.49,4.51,-0.26,0.58,-0.21
23.6980,-6.86,1.96,1.73,0.09,0.56,0.44
23.7800,-6.67,1.80,1.53,-0.40,0.41,0.59
23.8620,-6.98,2.08,0.63,-0.72,0.32,0.30
23.9440,-12.79,3.61,1.69,-0.65,-0.08,-0.06
24.0260,-11.96,1.69,4.71,0.03,0.18,-0.02
24.1080,-5.53,5.96,0.51,0.20,0.38,0.23
24.1900,-10.00,3.53,4.67,0.00,-0.53,-0.06
24.2720,-6.75,3.53,3.53,-0.03,-0.80,-0.14
24.3540,-6.39,1.88,3.30,0.12,-0.39,0.06
24.4360,-8.24,2.82,2.24,0.45,0.13,0.07
24.5180,-12.71,2.24,2.12,0.46,-0.24,0.22
24.6000,-13.85,4.31,3.69,0.44,-0.06,-0.25
24.6820,-9.89,3.88,6.35,-1.15,-0.01,-0.95
24.7640,-12.47,6.47,4.67,-0.15,0.19,-0.11
24.8460,-6.39,1.88,1.92,0.22,0.59,0.34
24.9280,-5.61,2.35,1.10,-0.14,0.31,0.45
25.0100,-6.79,2.35,0.59,-0.50,0.09,0.16
25.0920,-12.87,2.51,1.69,-0.38,-0.01,-0.31
25.1740,-13.69,1.61,-2.16,0.00,0.19,0.08
25.2560,-11.30,6.67,2.00,0.75,-0.62,0.24
25.3380,-10.00,2.79,4.71,0.25,-0.26,-0.05
25.4200,-7.37,3.41,3.61,-0.42,-0.80,-0.07
25.5020,-6.59,2.39,2.90,0.17,-0.62,-0.10
25.5840,-7.22,2.28,2.86,0.13,-0.05,0.18
25.6660,-10.28,3.69,2.98,0.48,0.30,0.14
25.7480,-12.71,2.59,1.18,0.47,-0.03,0.01
25.8300,-12.83,4.82,4.79,0.28,-0.16,-0.18
25.9120,-11.18,4.20,6.90,-1.04,-0.08,-0.80
25.9940,-10.20,3.61,4.04,0.24,0.36,0.07
26.0760,-6.47,1.96,1.96,-0.07,0.36,0.34
26.1580,-7.30,2.31,1.96,-0.32,0.16,0.53
26.2400,-8.51,2.35,1.14,-0.50,0.10,0.22
26.3220,-12.94,3.53,1.73,-0.57,0.13,0.08
26.4040,-10.08,1.96,4.51,-0.01,0.76,-0.05
26.4860,-7.45,4.08,2.79,0.02,0.63,0.29
26.5680,-8.16,2.94,4.28,-0.92,-0.25,0.19
26.6500,-7.45,2.71,3.69,-0.70,-0.21,0.20
26.7320,-6.67,2.51,3.57,-0.79,-0.11,0.34
26.8140,-8.12,3.06,3.22,-0.29,0.16,0.33
26.8960,-11.10,4.04,3.33,0.43,0.03,0.31
26.9780,-12.36,1.61,2.20,0.54,0.20,-0.12
27.0600,-8.83,3.65,6.55,-1.43,0.43,-0.38
27.1420,-9.89,6.00,5.18,-1.18,0.50,-0.11
27.2240,-7.45,1.41,2.51,-0.57,0.99,0.48
27.3060,-6.47,2.59,2.39,-1.32,0.83,0.80
27.3880,-7.30,3.41,2.39,-1.06,0.49,0.49
27.4700,-9.06,3.65,1.92,-1.01,0.29,0.19
27.5520,-12.71,1.49,0.20,-0.39,0.22,0.01
27.6340,-14.20,6.67,7.96,-0.86,0.61,0.08
27.7160,-7.49,4.47,5.02,-0.58,0.52,0.32
27.7980,-8.83,3.10,4.12,-0.91,-0.30,0.04
27.8800,-7.18,3.02,3.73,-0.59,-0.23,0.04
27.9620,-6.67,2.86,3.41,-0.42,-0.01,0.20
28.0440,-8.04,2.86,2.98,0.09,-0.13,0.13
28.1260,-11.30,2.67,1.88,0.68,0.02,0.20
28.2080,-13.81,3.77,4.20,0.22,0.15,-0.03
28.2900,-11.73,3.18,6.83,-0.77,-0.01,-0.41
28.3720,-9.45,4.71,4.51,-1.12,0.47,-0.01
28.4540,-6.94,2.39,3.02,-0.34,0.75,0.36
28.5360,-5.96,3.61,2.24,-1.03,0.53,0.68
28.6180,-7.34,3.73,2.43,-0.50,0.29,0.19
28.7000,-10.98,1.92,0.98,-0.64,0.28,-0.03
28.7820,-11.02,1.22,-0.90,-0.66,0.49,0.09
28.8640,-17.14,6.98,4.79,-0.24,-0.12,0.57
28.9460,-9.81,3.77,4.35,-0.23,-0.11,-0.11
29.0280,-8.55,4.04,4.31,-0.45,-0.60,-0.05
29.1100,-6.94,2.94,3.06,-0.01,-0.30,-0.12
29.1920,-6.20,1.84,2.59,0.04,-0.05,0.13
29.2740,-9.81,4.12,4.35,0.33,-0.43,0.31
29.3560,-12.16,0.82,0.86,0.55,0.05,-0.03
29.4380,-12.71,3.69,3.73,0.19,-0.14,0.06
29.5200,-10.87,4.08,6.43,-0.94,0.11,-0.89
29.6020,-10.08,4.71,4.16,-0.98,0.45,-0.27
29.6840,-6.94,2.08,2.47,-0.06,0.65,0.33
29.7660,-6.79,2.43,1.88,-0.74,0.42,0.58
29.8480,-7.37,2.63,0.86,-0.52,0.19,0.28
29.9300,-9.89,2.63,0.82,-0.65,-0.05,0.04
30.0120,-13.57,3.02,0.20,-0.16,0.01,-0.01
30.0940,-15.46,5.33,10.51,-0.24,0.41,0.22
30.1760,-7.14,2.31,4.43,0.28,0.40,-0.09
30.2580,-7.26,4.43,4.12,-0.59,-0.85,0.03
30.3400,-6.59,2.59,3.02,0.10,-0.31,-0.25
30.4220,-7.37,2.12,2.59,0.00,-0.23,0.24
30.5040,-9.69,2.79,2.82,0.30,-0.18,0.23
30.5860,-12.20,1.96,0.75,0.54,-0.03,0.13
30.6680,-11.89,5.73,4.55,-0.35,0.08,-0.18
30.7500,-8.87,5.14,6.08,-0.64,0.18,-0.79
30.8320,-11.73,3.96,4.16,0.09,0.28,-0.11
30.9140,-6.08,2.24,1.77,-0.05,0.51,0.37
30.9960,-6.86,2.71,1.73,-0.19,0.14,0.36
31.0780,-7.45,2.04,0.24,-0.35,0.03,0.09
31.1600,-11.14,3.14,2.39,-0.47,0.16,-0.31
31.2420,-12.94,-0.27,-1.14,0.24,0.36,0.10
31.3240,-11.22,9.92,3.06,0.35,0.27,0.69
31.4060,-8.04,2.16,4.94,-0.18,-0.23,-0.11
31.4880,-8.04,4.43,4.00,0.05,-0.71,-0.28
31.5700,-6.75,1.26,3.02,0.41,-0.40,-0.22
31.6520,-8.63,3.06,2.90,0.40,-0.29,0.16
31.7340,-9.57,2.75,2.20,0.77,0.20,0.09
31.8160,-11.81,1.80,1.18,0.34,0.06,-0.11
31.8980,-10.24,5.57,4.63,-0.26,0.41,-0.46
31.9800,-10.36,6.20,6.51,-0.74,0.07,-0.83
32.0620,-10.24,2.55,3.18,0.67,0.31,0.24
32.1440,-7.10,1.57,1.73,-0.24,0.32,0.47
32.2260,-7.14,2.24,1.41,-0.35,0.15,0.47
32.3080,-8.51,2.75,0.98,-0.46,-0.12,-0.02
32.3900,-13.38,3.49,1.77,-0.29,-0.18,0.01
32.4720,-12.28,2.98,4.16,-0.56,0.61,0.13
32.5540,-6.16,4.24,2.31,0.33,0.54,0.10
32.6360,-8.59,4.16,4.55,-0.42,-0.47,0.13
32.7180,-7.41,3.57,3.49,0.08,-0.49,-0.15
32.8000,-6.83,2.00,2.98,0.04,-0.34,0.18
32.8820,-9.18,3.22,3.14,0.25,-0.40,0.26
32.9640,-10.83,1.73,1.37,0.60,0.11,0.05
33.0460,-11.34,2.24,1.53,0.26,0.03,-0.17
33.1280,-7.77,3.84,6.75,-0.98,0.40,-0.83
33.2100,-12.08,7.02,5.30,-0.47,0.46,-0.48
33.2920,-7.53,1.61,2.00,0.11,0.70,0.40
33.3740,-6.79,2.16,1.37,-0.51,0.38,0.58
33.4560,-6.86,2.47,0.67,-0.57,0.00,0.31
33.5380,-10.24,2.90,2.43,-0.44,-0.02,-0.35
33.6200,-13.30,1.10,-2.67,0.16,0.23,0.06
33.7020,-16.51,12.36,13.18,-0.17,-1.04,0.49
33.7840,-5.53,1.61,3.80,0.30,0.43,-0.16
33.8660,-8.16,4.90,4.31,-0.01,-0.92,-0.27
33.9480,-6.75,1.65,2.59,0.62,-0.49,-0.38
34.0300,-7.77,2.43,2.47,0.47,-0.35,0.13
34.1120,-9.77,3.18,1.73,0.55,0.20,0.26
34.1940,-11.73,1.88,0.47,0.30,0.06,-0.02
34.2760,-11.53,5.73,3.45,0.40,-0.13,-0.17
34.3580,-9.85,4.43,7.30,-1.10,0.08,-1.05
34.4400,-11.73,4.63,4.12,0.70,0.04,-0.11
34.5220,-7.30,2.04,1.84,0.08,0.33,0.41
34.6040,-6.47,2.35,1.37,0.02,-0.04,0.49
34.6860,-7.73,1.41,0.20,-0.29,-0.01,0.13
34.7680,-13.38,3.10,2.51,-0.62,-0.12,-0.20
34.8500,-14.67,1.80,4.31,0.01,0.42,0.01
34.9320,-6.55,5.57,2.12,0.33,0.85,0.45
35.0140,-7.77,4.39,4.82,-0.64,-0.49,0.19
35.0960,-7.34,3.49,3.57,0.09,-0.56,-0.18
35.1780,-6.90,1.41,2.59,0.14,-0.30,0.01
35.2600,-9.10,2.47,2.90,0.25,-0.17,0.29
35.3420,-10.98,2.39,1.06,0.56,0.27,0.11
35.4240,-11.96,2.39,2.04,0.15,-0.09,-0.14
35.5060,-7.61,3.53,6.51,-0.96,0.28,-0.85
35.5880,-11.49,6.32,5.18,-0.80,0.29,-0.66
35.6700,-7.65,1.61,2.20,-0.01,0.74,0.51
35.7520,-7.06,2.35,1.22,-0.43,0.27,0.52
35.8340,-6.63,1.84,0.55,-0.55,0.13,0.32
35.9160,-9.49,3.02,1.49,-0.63,-0.16,-0.28
35.9980,-13.26,1.73,-0.67,0.14,-0.00,0.03
36.0800,-14.20,8.87,4.86,0.05,-0.63,0.35
36.1620,-8.39,3.53,4.86,0.31,0.12,0.13
36.2440,-7.34,3.84,3.33,-0.25,-0.53,0.04
36.3260,-7.34,2.35,3.49,0.30,-0.59,-0.25
36.4080,-7.65,2.28,2.67,0.04,-0.20,0.23
36.4900,-9.57,3.33,3.02,0.34,-0.05,0.12
36.5720,-11.89,2.16,1.14,0.48,-0.07,-0.00
36.6540,-11.57,3.06,1.88,0.46,-0.11,-0.09
36.7360,-8.20,2.94,6.12,-1.06,0.16,-0.57
36.8180,-9.96,6.32,4.67,-0.63,0.29,-0.48
36.9000,-7.77,2.35,2.59,-0.02,0.54,0.44
36.9820,-6.75,2.47,1.69,-0.38,0.28,0.71
37.0640,-6.32,2.90,0.90,-0.50,0.00,0.36
37.1460,-11.26,2.79,1.18,-0.46,-0.02,-0.20
37.2280,-13.38,0.51,-1.73,0.11,0.19,-0.04
37.3100,-13.93,12.32,11.06,-0.34,-0.57,0.44
37.3920,-7.10,2.71,3.69,0.38,0.14,-0.19
37.4740,-8.04,4.16,3.88,-0.38,-0.78,-0.06
37.5560,-6.43,2.16,2.90,0.06,-0.45,-0.16
37.6380,-7.30,2.51,2.59,0.12,-0.17,0.15
37.7200,-9.69,2.51,2.28,0.53,0.25,0.18
37.8020,-12.28,1.33,0.98,0.37,0.07,-0.10
37.8840,-10.79,6.47,5.26,-0.30,0.26,-0.50
37.9660,-10.20,7.14,6.32,-0.68,0.17,-0.83
38.0480,-8.75,2.16,3.69,1.02,0.10,0.24
38.1300,-6.75,1.92,1.06,0.20,0.17,0.41
38.2120,-6.43,2.04,0.43,-0.10,-0.13,0.26
38.2940,-9.57,1.92,0.71,-0.22,-0.15,-0.13
38.3760,-13.61,4.31,0.63,0.03,-0.21,0.01
38.4580,-14.95,10.67,7.92,-0.02,-0.46,0.35
38.5400,-7.69,3.18,4.59,0.26,0.30,0.06
38.6220,-7.06,4.04,3.61,-0.24,-0.63,-0.02
38.7040,-6.59,2.00,2.94,0.32,-0.58,-0.28
38.7860,-7.69,2.12,2.31,0.14,-0.15,0.18
38.8680,-9.14,2.71,2.51,0.38,0.26,0.09
38.9500,-12.51,2.24,0.94,0.56,-0.11,0.00
39.0320,-11.65,5.30,3.80,0.24,-0.00,-0.26
39.1140,-10.16,5.45,6.24,-0.93,0.00,-1.04
39.1960,-9.61,3.30,3.84,0.79,0.11,0.17
39.2780,-6.59,2.08,1.29,0.14,0.22,0.34
39.3600,-6.63,2.12,1.18,-0.09,0.01,0.32
39.4420,-9.45,2.04,0.35,-0.29,0.03,-0.12
39.5240,-13.61,4.12,0.27,-0.45,0.01,0.04
39.6060,-13.69,7.26,6.35,-0.79,0.23,-0.10
39.6880,-6.67,2.39,3.26,1.12,0.35,-0.17
39.7700,-7.85,3.80,4.16,-0.44,-0.75,-0.15
39.8520,-6.35,2.90,2.86,0.44,-0.73,-0.30
39.9340,-7.81,2.28,3.02,0.34,-0.40,0.12
40.0160,-9.92,2.82,1.84,0.58,0.12,0.19
40.0980,-12.47,1.80,1.10,0.43,-0.03,0.04
40.1800,-12.71,5.14,3.96,0.35,-0.14,-0.29
40.2620,-9.49,3.49,7.06,-1.16,-0.09,-0.86
40.3440,-11.38,5.61,4.59,0.21,0.33,-0.04
40.4260,-6.63,2.24,1.77,0.03,0.39,0.45
40.5080,-7.14,2.39,1.53,-0.05,-0.07,0.56
40.5900,-7.41,2.35,0.59,-0.22,-0.02,0.14
40.6720,-12.91,3.06,2.31,-0.39,-0.04,-0.26
40.7540,-12.43,-0.12,1.73,0.19,0.46,-0.19
40.8360,-8.83,7.34,1.10,0.44,0.61,0.58
40.9180,-9.57,4.20,5.14,-0.50,-0.48,0.07
41.0000,-7.57,3.33,3.65,-0.09,-0.53,-0.13
41.0820,-7.02,1.88,3.26,0.05,-0.46,0.03
41.1640,-8.51,2.86,2.55,0.26,-0.13,0.14
41.2460,-10.20,2.47,2.24,0.64,0.07,0.06
41.3280,-12.16,2.55,1.61,0.37,0.01,-0.21
41.4100,-8.32,4.55,6.08,-0.73,0.38,-0.77
41.4920,-11.69,6.12,5.69,-0.58,0.16,-0.42
41.5740,-7.02,1.96,2.67,0.34,0.58,0.38
41.6560,-6.55,2.24,1.14,-0.03,0.21,0.48
41.7380,-6.94,2.12,0.27,-0.32,-0.05,0.21
41.8200,-10.83,2.90,1.37,-0.40,0.11,-0.35
41.9020,-14.20,-0.12,-2.12,0.22,0.10,0.01
41.9840,-15.02,10.47,5.81,0.29,-0.77,0.57
42.0660,-7.96,2.59,4.31,0.08,-0.01,-0.07
42.1480,-8.00,3.84,4.04,-0.12,-0.89,-0.18
42.2300,-6.12,1.84,3.06,0.20,-0.50,-0.12
42.3120,-7.92,2.79,2.94,0.16,-0.18,0.22
42.3940,-9.69,2.31,1.80,0.53,0.37,0.05
42.4760,-12.67,2.31,1.37,0.42,-0.03,0.02
42.5580,-11.30,5.26,3.96,-0.16,0.31,-0.52
42.6400,-10.36,5.49,6.08,-0.89,0.17,-0.64
42.7220,-8.79,2.94,3.92,0.55,0.43,0.23
42.8040,-6.16,1.84,1.14,-0.02,0.22,0.52
42.8860,-6.47,2.08,0.75,-0.33,0.01,0.35
42.9680,-10.08,2.75,0.47,-0.41,-0.02,-0.16
43.0500,-14.00,2.51,-0.67,0.07,0.04,0.02
43.1320,-13.73,10.16,3.96,0.24,-0.85,0.36
43.2140,-9.14,2.20,5.22,0.22,-0.11,-0.11
43.2960,-7.41,4.35,3.92,-0.22,-0.91,-0.16
43.3780,-6.67,2.00,3.06,0.49,-0.51,-0.35
43.4600,-8.16,2.00,2.31,0.39,-0.19,0.20
43.5420,-8.98,2.79,2.24,0.40,0.26,0.11
43.6240,-12.83,2.24,1.06,0.45,-0.03,0.00
43.7060,-10.43,5.61,3.57,-0.33,0.28,-0.37
43.7880,-9.77,5.37,6.71,-0.91,0.03,-0.86
43.8700,-9.38,3.30,4.20,0.42,0.28,0.37
43.9520,-6.12,1.84,0.75,0.06,0.16,0.40
44.0340,-6.00,1.73,0.82,-0.25,-0.07,0.38
44.1160,-10.16,3.30,0.59,-0.49,0.01,-0.20
44.1980,-13.77,3.02,-0.55,-0.02,0.03,0.04
44.2800,-14.98,7.88,9.89,-0.01,-0.39,0.39
44.3620,-7.37,2.08,4.47,0.29,0.29,-0.05
44.4440,-7.41,4.04,4.24,-0.35,-0.79,-0.14
44.5260,-5.73,2.12,3.30,0.24,-0.44,-0.20
44.6080,-7.65,3.06,3.26,0.16,-0.31,0.24
44.6900,-9.73,2.31,1.45,0.58,0.31,0.07
44.7720,-12.83,1.80,0.78,0.51,-0.03,-0.01
44.8540,-9.77,7.30,4.86,-0.11,0.27,-0.34
44.9360,-10.51,4.79,6.35,-0.51,0.06,-0.77
45.0180,-9.77,2.82,4.12,0.57,0.40,0.28
45.1000,-5.73,1.96,0.90,0.01,0.36,0.46
45.1820,-6.71,1.84,0.94,-0.14,-0.11,0.25
45.2640,-9.41,2.75,0.71,-0.34,0.07,-0.22
45.3460,-14.24,2.79,-0.94,0.05,0.08,0.15
45.4280,-15.10,9.65,10.47,-0.24,-0.03,0.40
45.5100,-6.71,2.35,4.04,-0.06,0.20,0.05
45.5920,-8.12,4.24,4.16,-0.34,-0.81,-0.10
45.6740,-5.88,1.92,2.79,0.15,-0.28,-0.14
45.7560,-7.34,2.16,2.63,-0.02,-0.09,0.31
45.8380,-10.16,3.33,2.71,0.44,0.03,0.30
45.9200,-12.55,1.73,0.90,0.48,0.13,-0.07
46.0020,-10.55,5.37,3.73,-0.36,0.41,-0.46
46.0840,-10.90,5.37,6.28,-0.89,-0.06,-0.86
46.1660,-9.85,2.08,3.33,0.27,0.58,0.24
46.2480,-6.16,1.96,1.22,-0.50,0.40,0.47
46.3300,-6.08,1.92,0.98,-0.62,0.09,0.51
46.4120,-8.87,2.63,0.31,-0.74,0.03,-0.05
46.4940,-14.95,4.59,0.94,-0.11,-0.38,0.14
46.5760,-15.02,9.06,11.38,-0.24,0.38,0.35
46.6580,-5.77,2.39,3.18,0.26,0.51,0.04
46.7400,-8.79,4.24,4.59,-0.19,-0.99,-0.30
46.8220,-5.65,1.26,2.51,0.30,-0.40,-0.23
46.9040,-6.94,2.98,3.22,0.18,-0.45,0.21
46.9860,-9.34,2.39,1.49,0.82,0.50,0.16
47.0680,-13.10,1.77,0.98,0.42,-0.09,-0.13
47.1500,-9.14,6.75,4.71,-0.45,0.36,-0.39
47.2320,-10.98,5.81,6.83,-0.64,0.01,-0.76
47.3140,-8.20,1.57,2.82,0.43,0.54,0.30
47.3960,-5.92,1.84,1.06,-0.25,0.35,0.50
47.4780,-6.28,1.69,0.59,-0.48,0.03,0.28
47.5600,-9.96,2.39,0.82,-0.57,0.04,-0.12
47.6420,-14.98,2.63,-0.98,0.15,-0.09,0.08
47.7240,-15.30,10.90,9.45,0.14,-0.62,0.54
47.8060,-8.51,2.24,4.90,-0.13,-0.12,0.01
47.8880,-8.08,4.31,4.04,-0.20,-0.86,-0.12
47.9700,-5.92,1.73,2.71,0.18,-0.37,-0.15
48.0520,-7.73,2.51,2.63,0.16,-0.12,0.28
48.1340,-10.24,2.67,2.08,0.54,0.28,0.19
48.2160,-12.83,2.39,1.96,0.25,0.01,-0.23
48.2980,-8.63,4.35,6.04,-0.97,0.18,-1.08
48.3800,-13.10,7.26,5.33,-0.28,0.18,-0.43
48.4620,-6.83,1.45,2.16,0.30,0.55,0.38
48.5440,-5.41,1.80,0.71,-0.04,0.34,0.55
48.6260,-6.86,2.28,0.16,-0.51,0.02,0.18
48.7080,-13.69,3.45,2.86,-0.63,-0.21,-0.42
48.7900,-12.04,-1.45,0.51,0.26,0.24,-0.05
48.8720,-8.63,9.02,3.37,0.98,0.31,0.69
48.9540,-7.61,2.51,4.28,-0.37,-0.46,-0.23
49.0360,-7.49,3.53,3.65,0.31,-0.79,-0.27
49.1180,-6.59,1.37,2.75,0.46,-0.46,-0.20
49.2000,-8.47,2.94,2.82,0.63,-0.27,0.15
49.2820,-12.00,0.98,0.90,0.87,-0.02,0.13
49.3640,-12.36,3.37,1.84,-0.14,-0.02,-0.23
49.4460,-6.98,5.49,6.71,-0.59,0.36,-0.93
49.5280,-14.00,6.24,5.61,-0.11,0.20,-0.34
49.6100,-6.94,1.14,2.28,0.39,0.55,0.33
49.6920,-5.53,1.88,0.67,-0.01,0.14,0.68
49.7740,-6.79,2.16,0.39,-0.47,0.01,0.15
49.8560,-13.53,2.98,2.90,-0.45,-0.13,-0.37
49.9380,-13.22,2.43,5.45,0.29,0.38,0.04
50.0200,-5.45,3.77,0.63,0.43,0.94,0.49
50.1020,-8.63,4.82,5.30,-0.61,-0.64,0.25
50.1840,-7.10,3.26,3.53,0.17,-0.61,-0.27
50.2660,-7.53,1.41,2.86,0.16,-0.43,0.04
50.3480,-8.63,2.39,2.35,0.14,-0.08,0.25
50.4300,-11.02,2.35,1.41,0.38,-0.01,0.18
50.5120,-12.04,4.20,2.31,0.06,-0.06,-0.14
50.5940,-7.14,4.31,6.71,-0.84,0.40,-0.93
50.6760,-12.47,6.20,5.57,-0.36,0.13,-0.42
50.7580,-6.59,1.77,1.65,0.15,0.62,0.36
50.8400,-6.28,1.84,1.26,-0.19,0.23,0.66
50.9220,-5.96,1.69,0.12,-0.59,0.05,0.31
51.0040,-13.14,3.80,3.41,-0.63,-0.03,-0.33
51.0860,-13.89,3.69,7.30,0.48,0.24,-0.05
51.1680,-4.43,4.55,1.41,0.19,0.93,0.09
51.2500,-7.73,4.98,4.63,-0.27,-0.64,0.10
51.3320,-6.71,2.67,2.90,0.36,-0.64,-0.35
51.4140,-6.75,1.33,2.71,0.37,-0.45,-0.02
51.4960,-9.34,2.24,2.59,0.40,-0.08,0.22
51.5780,-12.40,2.04,1.33,0.41,0.01,0.18
51.6600,-12.71,3.61,2.47,0.21,-0.08,-0.23
51.7420,-7.92,3.80,6.24,-1.29,0.33,-0.70
51.8240,-12.47,6.79,4.98,-0.05,0.35,-0.27
51.9060,-6.79,1.45,1.69,0.05,0.70,0.32
51.9880,-6.67,1.84,1.22,-0.33,0.15,0.63
52.0700,-7.49,1.33,-0.16,-0.64,0.10,0.21
52.1520,-14.12,4.12,3.45,-0.90,-0.23,-0.32
52.2340,-14.28,3.30,3.96,0.69,0.74,0.01
52.3160,-5.22,4.16,3.30,0.29,0.86,0.17
52.3980,-7.10,4.98,4.04,-0.31,-0.71,0.03
52.4800,-5.61,2.16,2.82,0.53,-0.69,-0.42
52.5620,-7.14,1.80,2.82,0.39,-0.39,0.07
52.6440,-10.20,2.71,2.08,0.60,0.51,0.06
52.7260,-13.38,1.73,1.14,0.36,-0.08,0.08
52.8080,-11.10,6.24,4.04,-0.32,0.41,-0.36
52.8900,-9.49,6.20,5.77,-1.13,0.26,-0.88
52.9720,-9.73,2.59,4.00,0.86,0.10,0.07
53.0540,-6.51,1.80,0.90,-0.08,0.25,0.40
53.1360,-5.92,1.92,0.67,-0.28,-0.09,0.37
53.2180,-9.81,2.39,0.71,-0.44,-0.12,-0.21
53.3000,-13.10,3.96,0.31,-0.06,-0.10,0.09
53.3820,-11.06,4.82,5.18,-0.02,0.72,0.30
53.4640,-6.86,2.82,3.73,0.59,0.57,0.03
53.5460,-7.34,4.00,3.49,-0.32,-0.65,-0.01
53.6280,-6.16,2.67,3.02,0.28,-0.69,-0.26
53.7100,-7.49,2.24,2.86,0.12,-0.35,0.20
53.7920,-9.53,3.18,2.79,0.40,-0.01,0.20
53.8740,-12.47,1.69,0.98,0.52,0.01,0.04
53.9560,-12.94,4.20,3.73,0.47,-0.16,-0.37
54.0380,-9.45,3.92,6.20,-1.42,0.14,-0.81
54.1200,-11.14,6.16,4.59,0.18,0.24,-0.06
54.2020,-7.41,1.84,1.84,-0.12,0.23,0.35
54.2840,-7.22,1.80,1.84,-0.20,-0.11,0.50
54.3660,-8.16,2.51,0.94,-0.52,-0.04,0.18
54.4480,-13.89,3.69,1.88,-0.54,-0.12,-0.02
54.5300,-12.40,5.10,5.53,-0.51,0.85,-0.07
54.6120,-6.16,4.04,2.04,0.96,0.40,-0.11
54.6940,-8.59,3.73,4.39,-0.53,-0.84,-0.17
54.7760,-5.41,2.71,2.94,0.24,-0.36,-0.23
54.8580,-6.43,2.24,2.63,0.37,-0.38,0.12
54.9400,-9.49,1.73,0.98,0.95,0.23,0.19
55.0220,-12.71,1.41,0.59,0.20,-0.03,-0.16
55.1040,-9.30,6.79,5.22,-0.20,0.48,-0.50
55.1860,-14.51,6.59,7.14,-0.69,-0.18,-0.92
55.2680,-8.20,0.71,1.88,0.56,0.70,0.14
55.3500,-5.45,1.41,0.86,-0.41,0.52,0.56
55.4320,-5.10,0.78,-0.08,-0.90,0.10,0.39
55.5140,-11.89,3.84,3.92,-0.80,-0.07,-0.45
55.5960,-16.20,-0.55,1.14,0.38,0.46,0.06
55.6780,-9.02,9.45,2.98,0.64,0.60,0.74
55.7600,-7.92,2.98,4.79,-0.16,-0.38,-0.05
55.8420,-8.04,3.92,3.41,0.44,-0.85,-0.43
55.9240,-5.57,0.94,2.79,0.68,-0.47,-0.31
56.0060,-9.02,2.59,2.90,0.96,-0.28,0.28
56.0880,-12.12,0.94,-0.27,0.54,-0.15,0.08
56.1700,-13.81,5.14,4.35,0.18,-0.23,-0.30
56.2520,-9.85,3.18,6.55,-1.12,-0.25,-1.21
56.3340,-12.67,4.98,4.55,0.18,0.17,-0.10
56.4160,-5.77,1.02,1.26,-0.02,0.48,0.39
56.4980,-4.94,1.80,0.90,-0.43,-0.00,0.54
56.5800,-8.12,2.94,0.27,-0.59,0.07,0.02
56.6620,-14.32,3.88,0.67,0.10,-0.12,0.22
56.7440,-15.22,6.00,8.39,-0.58,0.77,0.11
56.8260,-5.69,1.73,3.14,0.50,0.49,-0.08
56.9080,-8.75,4.86,4.59,-0.09,-1.06,-0.22
56.9900,-5.18,1.26,2.20,0.73,-0.50,-0.34
57.0720,-6.59,3.10,3.37,0.52,-0.58,0.27
57.1540,-10.59,0.47,0.67,1.14,0.35,-0.06
57.2360,-12.75,3.33,1.69,-0.16,-0.27,-0.20
57.3180,-8.20,5.84,7.37,-0.78,0.46,-0.89
57.4000,-14.08,7.18,6.32,-0.59,0.04,-0.42
57.4820,-6.35,0.71,1.10,0.11,0.67,0.36
57.5640,-5.45,1.49,0.78,-0.33,0.21,0.70
57.6460,-7.53,2.31,-0.04,-0.85,0.11,0.37
57.7280,-16.51,3.84,2.94,-0.50,-0.34,-0.19
57.8100,-12.63,1.41,2.79,0.48,0.82,0.01
57.8920,-5.77,4.20,3.80,0.48,0.62,0.25
57.9740,-7.53,4.39,4.39,-0.25,-0.78,-0.21
58.0560,-5.30,2.31,2.71,0.57,-0.64,-0.34
58.1380,-6.28,1.22,2.24,0.37,-0.16,0.19
58.2200,-10.32,2.51,1.80,0.62,0.31,0.41
58.3020,-12.83,2.39,1.29,-0.01,-0.05,-0.11
58.3840,-9.41,6.59,5.14,-0.52,0.53,-0.73
58.4660,-12.32,6.08,6.75,-0.74,-0.26,-0.88
58.5480,-7.88,0.24,1.88,0.41,0.65,0.26
58.6300,-4.86,1.49,0.59,-0.31,0.27,0.67
58.7120,-5.14,1.53,-0.04,-0.74,-0.03,0.37
58.7940,-14.55,4.35,3.53,-0.48,-0.11,-0.62
58.8760,-12.63,-0.16,3.18,0.60,0.45,-0.02
58.9580,-7.92,6.83,2.51,0.79,0.85,0.70
59.0400,-8.55,4.20,4.90,-0.60,-0.30,0.01
59.1220,-6.71,3.22,3.02,0.40,-0.72,-0.26
59.2040,-5.96,1.06,2.75,0.46,-0.35,-0.04
59.2860,-11.18,3.22,1.96,0.90,-0.21,0.44
59.3680,-13.61,1.22,0.27,0.28,-0.03,-0.14
59.4500,-11.06,8.04,5.37,-0.51,0.36,-0.52
59.5320,-11.10,5.33,6.39,-0.77,-0.07,-0.97
59.6140,-8.20,1.73,2.86,0.42,0.42,0.23
59.6960,-5.49,1.33,0.67,-0.15,0.36,0.49
59.7780,-6.04,1.53,0.00,-0.55,-0.04,0.28
59.8600,-11.69,3.88,3.57,-0.59,-0.01,-0.43
59.9420,-17.02,2.28,3.45,0.52,0.32,0.22
60.0240,-6.39,3.65,1.02,0.56,0.80,0.33
60.1060,-7.69,4.71,4.86,-0.69,-0.41,0.36
60.1880,-6.67,2.86,2.90,0.36,-0.69,-0.21
60.2700,-7.26,1.22,2.94,0.30,-0.30,0.14
60.3520,-10.43,3.26,2.59,0.44,-0.00,0.24
60.4340,-12.83,1.33,-0.24,0.23,0.06,-0.04
60.5160,-12.04,7.06,5.14,0.19,-0.07,-0.35
60.5980,-10.98,3.92,7.30,-1.18,-0.35,-1.10
60.6800,-10.75,4.08,3.96,0.44,0.33,0.06
60.7620,-6.71,0.98,1.18,-0.23,0.32,0.52
60.8440,-4.82,1.57,0.75,-0.70,-0.10,0.56
60.9260,-9.53,4.28,0.43,-0.65,0.14,-0.13
61.0080,-14.59,0.47,-1.73,0.49,-0.03,0.20
61.0900,-18.63,11.85,9.81,-0.13,-0.97,0.67
61.1720,-6.67,2.16,3.61,-0.08,0.47,0.00
61.2540,-8.51,4.08,3.73,-0.02,-1.00,-0.26
61.3360,-5.69,0.59,2.28,0.39,-0.32,-0.15
61.4180,-7.92,3.02,3.10,0.31,-0.35,0.43
61.5000,-11.89,1.73,0.47,0.65,0.14,0.09
61.5820,-12.79,4.31,2.16,-0.20,-0.18,-0.18
61.6640,-6.59,5.06,6.75,-0.99,0.32,-1.04
61.7460,-14.04,6.16,5.57,-0.03,0.16,-0.34
61.8280,-5.73,1.77,0.43,0.04,0.64,0.37
61.9100,-5.45,1.73,0.71,-0.23,0.10,0.58
61.9920,-7.26,1.69,-0.24,-0.51,0.13,0.22
62.0740,-16.32,3.61,2.75,-0.40,-0.48,-0.16
62.1560,-12.20,0.90,3.18,-0.21,0.98,0.01
62.2380,-5.26,4.51,2.79,0.53,0.62,0.26
62.3200,-9.06,5.02,4.55,-0.21,-0.78,-0.12
62.4020,-6.47,2.59,2.31,0.63,-0.62,-0.43
62.4840,-6.75,1.61,2.43,0.44,-0.40,-0.02
62.5660,-8.75,2.82,1.92,0.65,-0.21,0.45
62.6480,-11.22,1.88,0.35,0.72,-0.00,0.03
62.7300,-11.10,8.63,4.79,0.38,-0.19,-0.58
62.8120,-13.93,7.18,6.94,-0.59,-0.37,-1.25
62.8940,-10.36,3.22,3.49,0.59,0.42,-0.09
62.9760,-8.59,3.41,4.16,-0.37,0.16,0.29
63.0580,-6.47,2.04,1.92,-0.12,0.01,0.28
63.1400,-7.10,1.96,1.65,-0.48,-0.16,0.03
63.2220,-9.02,1.96,2.12,-0.49,0.00,-0.05
63.3040,-11.06,3.41,2.16,-0.75,-0.14,0.14
63.3860,-11.65,3.18,4.00,-0.66,0.13,0.08
63.4680,-11.34,4.94,6.12,0.29,-0.24,0.72
63.5500,-6.47,2.20,3.80,-0.63,0.09,0.12
63.6320,-8.36,3.26,5.02,-0.12,-0.35,-0.04
63.7140,-7.77,3.30,5.41,-0.21,-0.38,0.14
63.7960,-8.67,3.26,5.10,0.13,-0.22,0.10
63.8780,-8.90,3.14,4.86,0.32,-0.09,-0.05
63.9600,-8.39,3.57,4.67,0.30,0.07,0.09
64.0420,-7.65,3.61,4.16,0.62,0.36,-0.13
64.1240,-9.02,3.69,4.28,0.49,-0.06,-0.15
64.2060,-9.14,3.49,3.49,0.29,-0.02,-0.10
64.2880,-8.71,3.77,3.57,0.25,0.04,0.07
64.3700,-8.87,4.04,3.37,0.22,-0.05,0.04
64.4520,-9.10,3.88,3.33,0.22,-0.10,0.02
64.5340,-8.55,4.00,3.10,0.19,-0.09,0.06
64.6160,-8.94,4.12,3.22,0.12,-0.11,0.04
64.6980,-8.94,4.04,3.49,0.10,-0.12,0.03
64.7800,-8.87,3.88,3.06,0.09,-0.03,0.00
64.8620,-9.02,3.88,3.22,-0.02,0.03,-0.02
64.9440,-8.90,4.12,3.37,-0.04,0.05,-0.03
65.0260,-8.90,4.00,3.22,-0.01,0.03,-0.05
65.1080,-9.06,3.77,3.14,-0.03,0.07,-0.05
65.1900,-9.30,3.88,3.30,-0.07,0.07,-0.06
65.2720,-9.02,3.69,3.10,-0.02,0.08,-0.08
65.3540,-9.18,3.69,3.06,-0.05,0.11,-0.09
65.4360,-9.45,3.61,3.14,-0.06,0.09,-0.07
65.5180,-9.18,3.61,3.02,-0.06,0.04,-0.02
65.6000,-9.41,3.41,2.98,-0.03,0.02,-0.02
65.6820,-9.34,3.41,3.02,-0.06,0.01,0.00
65.7640,-9.30,3.30,2.98,0.00,-0.03,-0.01
65.8460,-9.41,3.26,2.94,0.03,-0.02,-0.03
65.9280,-9.45,3.33,3.06,0.06,-0.01,-0.03
66.0100,-9.34,3.22,3.06,0.04,-0.00,-0.04
66.0920,-9.41,3.30,2.86,0.02,0.00,-0.02
66.1740,-9.38,3.33,3.06,0.01,0.01,-0.02
66.2560,-9.30,3.49,3.10,0.02,0.01,-0.00
66.3380,-9.34,3.41,2.90,0.03,0.00,-0.02
66.4200,-9.26,3.30,2.94,0.03,0.01,-0.02
66.5020,-9.34,3.33,2.94,0.03,0.01,-0.00
66.5840,-9.26,3.41,2.98,0.04,-0.00,-0.02
66.6660,-9.38,3.26,2.94,0.00,0.01,0.01
66.7480,-9.41,3.41,2.94,-0.02,-0.00,0.02
66.8300,-9.38,3.45,2.98,0.00,-0.02,0.01
66.9120,-9.41,3.30,2.94,0.01,-0.01,-0.01
66.9940,-9.41,3.33,2.90,-0.01,0.00,-0.01
67.0760,-9.30,3.37,2.94,0.02,-0.01,-0.01
67.1580,-9.45,3.26,2.98,0.01,-0.01,-0.02
67.2400,-9.30,3.22,3.06,-0.01,-0.00,-0.00
67.3220,-9.41,3.30,2.94,0.01,-0.01,-0.01
67.4040,-9.41,3.37,2.86,-0.01,-0.00,-0.00
67.4860,-9.30,3.26,2.94,-0.00,-0.00,0.01
67.5680,-9.34,3.30,2.94,-0.02,-0.00,0.02
67.6500,-9.49,3.30,2.86,-0.01,-0.01,0.01
67.7320,-9.30,3.22,2.94,-0.02,0.01,0.01
67.8140,-9.26,3.37,2.86,-0.01,-0.00,-0.00
67.8960,-9.34,3.33,2.90,0.00,-0.00,0.00
67.9780,-9.38,3.30,2.90,0.01,-0.00,0.00
68.0600,-9.38,3.33,3.10,0.00,-0.00,0.00
68.1420,-9.34,3.33,3.02,0.01,-0.00,-0.00
68.2240,-9.30,3.30,2.98,-0.00,-0.00,0.00
68.3060,-9.30,3.37,3.02,-0.01,-0.00,0.01
68.3880,-9.38,3.30,2.86,0.00,-0.01,0.00
68.4700,-9.38,3.26,2.90,0.00,-0.00,0.00
68.5520,-9.34,3.33,3.02,-0.01,-0.00,0.01
68.6340,-9.30,3.30,3.02,0.00,-0.01,0.00
