NAME:,walk_111_2_1.csv,,,,,
EXPERIMENT TIME:,20/03/2024 18:35,,,,,
ACTIVITY TYPE:,Walking,,,,,
COUNT OF ACTUAL STEPS:,80,,,,,
,,,,,,
Time [sec],ACC X,ACC Y,ACC Z,GYRO X,GYRO Y,GYRO Z
0.07299805,9.13,0.01,-2.93,0.24,0.26,-0.09
0.1459961,9.63,-0.76,-2.73,-0.14,0.14,0.06
0.21899414,9.39,-0.69,-2.84,-0.06,0.16,0.04
0.2919922,9.52,-0.04,-2.92,0.08,0.1,-0.07
0.36499023,9.83,-0.01,-2.8,-0.05,0.14,-0.14
0.43798828,8.92,-0.05,-2.78,-0.32,0.19,-0.15
0.51123047,9.3,0.54,-3.19,-0.39,-0.11,-0.22
0.5842285,9.65,1.04,-3.21,-0.62,-0.14,-0.13
0.65722656,9.42,0.61,-3.18,-1.04,0.11,0.19
0.7302246,9.19,0.33,-2.92,-1.16,0.03,0.18
0.80322266,9.56,0.31,-2.82,-1.1,-0.12,0.07
0.8762207,9.55,0.33,-3.01,-1,-0.04,0.18
0.94921875,9.3,0.22,-2.99,-0.79,0,0.21
1.0222168,9.44,0.18,-2.77,-0.56,-0.04,0.15
1.0952148,9.62,-0.01,-2.94,-0.43,-0.06,0.15
1.1682129,9.41,-0.03,-3.01,-0.28,0.03,0.17
1.2412109,9.66,-0.2,-2.96,-0.11,0,0.14
1.314209,9.89,-0.63,-2.57,-0.07,0.07,0.15
1.387207,9.68,-0.45,-2.31,0.07,0.16,0.07
1.4602051,9.34,-0.27,-2.41,0.07,0.13,0.06
1.5332031,8.72,-0.24,-2.07,-0.03,0.12,0.1
1.6062012,9.72,-0.34,-2.1,-0.05,-0.18,0.04
1.6791992,8.97,-0.16,-2.29,-0.13,-0.22,-0.05
1.7521973,8.92,-0.24,-1.63,-0.22,-0.2,-0.08
1.8251953,9.43,-0.42,-1.75,-0.43,-0.22,-0.07
1.8981934,10.59,-0.8,-1.24,-0.47,-0.06,0
1.9711914,12.62,-0.67,-2.75,-0.25,0.04,-0.05
2.0441895,12.14,-0.69,-4.43,-0.13,0.38,0.04
2.1171875,6.01,1.01,-5.23,0.11,0.31,-0.04
2.1901855,10.04,1.03,-3.81,0.58,-0.29,-0.31
2.2631836,7.88,0.06,-3.08,0.23,-0.09,-0.22
2.3361816,7,0.63,-3.14,0.48,0.05,-0.12
2.4091797,8.83,1.81,-2.95,0.72,-0.07,-0.27
2.4821777,9.37,1.18,-2.29,0.59,0.03,-0.13
2.5551758,11.28,0.93,-2.14,0.31,0.07,0.13
2.6281738,13.1,-0.15,-1.94,0.49,0.6,0.03
2.7011719,10.26,0.39,-7.22,0.28,0.13,-0.15
2.77417,8.19,-1.03,-3.94,-0.06,0.22,-0.15
2.847168,9.35,0.91,-4.54,0.34,-0.16,-0.29
2.920166,6.3,0.41,-2.97,-0.07,0.21,-0.07
2.993164,7.86,-0.31,-3.36,-0.42,-0.04,0.27
3.066162,9.22,-0.39,-2.87,-0.56,-0.11,0.1
3.1391602,9.82,-0.02,-1.95,-0.39,0.16,-0.11
3.2121582,10.6,-0.66,-1.38,-0.52,0.31,-0.07
3.2851562,11.75,-0.8,-1.85,-0.17,0.98,0.05
3.3581543,11.88,1.72,-7.07,-0.17,-0.14,0.09
3.4311523,7.73,1.14,-3.47,-0.04,0.17,-0.06
3.5041504,9.21,0.54,-3.84,0.1,-0.38,-0.05
3.5771484,6.06,0.4,-2.4,0.34,0.12,-0.05
3.6501465,9.17,2.11,-2.97,0.97,-0.21,-0.07
3.7231445,9.24,1.16,-1.44,0.3,0.25,0.2
3.7961426,9.02,-0.02,-1.24,0.25,0.38,0.53
3.8691406,10.45,0.58,-0.78,0.56,0.2,0.42
3.9421387,11.95,1.23,-3.88,0.88,-0.06,-0.01
4.0151367,11.7,2.19,-6.52,-0.2,-0.03,-0.23
4.088135,9.58,0.23,-4.1,-0.72,0.24,-0.25
4.161133,7.4,1.29,-4.22,-1.43,0.26,-0.02
4.234131,6.47,0.76,-3.92,-2.01,0.09,0.27
4.307129,9.09,-0.12,-4.64,-2.37,-0.39,0.35
4.380127,9.7,-0.73,-3.05,-2.35,-0.2,0.37
4.453125,9.5,-0.12,-1.91,-1.61,-0.24,0.12
4.526123,9.86,0.37,-2.07,-1.4,-0.07,0.1
4.599121,10.48,0.43,-2.27,-1.42,0.34,0.16
4.672119,12.48,1.82,-6.43,-1.15,-0.12,-0.02
4.745117,7.97,1.17,-4.86,-1.44,0.21,0.24
4.818115,9.4,0.59,-3.35,-0.88,-0.46,-0.03
4.8911133,7.33,1.25,-2.91,-0.74,-0.31,-0.08
4.9641113,7.34,2.15,-3.39,-0.36,-0.32,-0.14
5.0371094,9.34,2.33,-3.88,-0.42,-0.67,0.03
5.1101074,9.29,1.5,-3.17,-0.53,-0.32,0.33
5.1831055,10.42,0.73,-2.82,-0.21,0.05,0.61
5.2561035,11.38,1.9,-2.54,0.43,0.25,0.17
5.3291016,11.03,1.14,-4.74,1.08,0.4,-0.15
5.4020996,8.23,0.1,-7.22,0.27,0.27,-0.09
5.4750977,9.35,-1.5,-4.47,0.16,0.05,0.07
5.5480957,7.48,0.48,-4.82,0.18,-0.04,-0.19
5.6210938,6.15,0.24,-3.45,-0.3,0.33,0.2
5.694092,9.3,-1.06,-3.79,-0.44,-0.42,0.17
5.76709,9.97,-1.01,-2.67,-0.37,-0.02,0.07
5.840088,10.07,0.37,-2.62,-0.09,0.08,-0.1
5.913086,10.58,-0.25,-1.2,-0.33,0.52,-0.15
5.986084,11.36,-0.59,-5,0,0.29,-0.16
6.059082,10.06,0.72,-7.05,-0.07,0.23,0.16
6.13208,7.55,0.17,-4.43,0.33,0.16,-0.15
6.205078,8.65,0.18,-4.3,0.35,-0.19,-0.08
6.278076,6.68,0.06,-3.13,0.22,0.11,-0.01
6.351074,8.88,1.55,-3.51,0.55,-0.31,-0.15
6.4240723,9.85,1.18,-2.58,0.57,-0.13,-0.27
6.4970703,9.47,0.07,-2.22,0.24,0.26,0.2
6.5700684,11.47,0.99,-1.51,0.51,0.22,0
6.6430664,11.34,0.27,-3.82,0.94,0.43,-0.29
6.7160645,9.13,-0.16,-6.93,0.18,0.17,-0.01
6.7890625,9.53,-1.1,-4.35,0.31,-0.01,-0.15
6.8620605,8.39,0.8,-4.21,0.43,-0.11,-0.36
6.9350586,6.71,0.46,-3.01,-0.11,0.2,0.1
7.0080566,8.45,-0.49,-3.03,-0.43,-0.17,0.24
7.0810547,9.49,-0.61,-2.27,-0.41,-0.05,0.09
7.1540527,10.04,0.03,-2.06,-0.22,0.08,-0.11
7.227051,11.22,-0.54,-0.82,-0.38,0.44,-0.05
7.300049,12.06,0.25,-5.87,0.08,-0.01,-0.14
7.373047,9.38,1.52,-5.98,-0.37,0.38,0.31
7.446045,8.17,0.9,-4.31,0.09,-0.14,-0.21
7.519043,7.75,-0.41,-3.18,-0.38,-0.14,0.21
7.592041,7.35,0.59,-3.02,0.27,-0.23,-0.09
7.665039,8.58,1.7,-3.74,0.66,-0.37,-0.41
7.738037,9.55,0.78,-2.17,0.32,0,0.09
7.811035,10.42,0.08,-2.44,0.48,0.01,0.17
7.884033,11.72,0.71,-1.47,1,0.46,-0.13
7.9570312,11.57,0.29,-6.92,1.09,-0.23,-0.36
8.030029,7.61,-1.12,-4.9,0.45,0.2,-0.3
8.103027,9.98,-0.53,-5.2,0.74,-0.34,-0.13
8.176025,7.71,0.29,-4.52,0.51,-0.02,-0.33
8.249023,7.13,-0.35,-4.06,0.42,0.04,-0.04
8.3220215,8.75,-1.1,-3.07,0.16,-0.16,-0.07
8.39502,8.86,-0.58,-2.77,0.26,-0.02,-0.23
8.468018,9.64,0.97,-2.78,0.38,-0.05,-0.41
8.541016,11.4,0.44,-1.75,0.16,0.47,-0.57
8.614014,10.79,-0.82,-8.47,0.11,-0.05,-0.21
8.687012,8.43,-0.86,-5.46,-0.19,0.4,0.38
8.76001,10.43,-0.28,-5.16,0.99,-0.6,-0.32
8.833008,7.54,0.11,-4.07,1.02,0.01,-0.32
8.906006,7.52,0.59,-3.83,1.3,-0.01,-0.21
8.979004,7.6,0.75,-3.26,0.99,0.22,-0.14
9.052002,7.92,0.35,-1.86,0.92,0.57,0
9.125,8.85,0.67,-1.72,1.03,0.43,-0.16
9.197998,10.43,0.65,-1.24,0.81,0.56,-0.08
9.270996,12.44,-0.58,-10.18,0.85,-0.5,-0.26
9.343994,9.53,-3.9,-6.24,0.02,0.47,0.04
9.416992,10.65,1.12,-5.32,0.94,-0.63,-0.47
9.48999,6.36,1.48,-4.34,-0.42,-0.13,-0.13
9.562988,6.52,0.01,-2.69,-0.8,0.52,0.65
9.63623,9.09,-0.52,-2.72,-0.76,-0.17,0.28
9.7092285,11.41,-0.31,-1.86,-0.52,0.11,-0.07
9.782227,10.66,-0.63,-1.94,-0.49,0.54,-0.1
9.855225,12.18,0.65,-6.63,-0.03,-0.16,-0.22
9.928223,9.11,2.28,-6.07,-0.57,0.32,0.29
10.001221,8.31,1.04,-3.77,-0.25,-0.13,-0.02
10.074219,7.45,0.56,-3.3,-0.51,-0.04,0.24
10.147217,7.56,1.16,-2.87,-0.02,-0.19,0
10.220215,9.24,2.05,-3.75,0.09,-0.26,-0.09
10.293213,9.39,0.91,-2.11,-0.25,0.16,0.29
10.366211,10.43,0.31,-2.47,-0.09,0.05,0.45
10.439209,12.27,-0.23,-2.45,0.43,0.31,0.22
10.512207,9.85,1.15,-7.43,0.36,-0.08,-0.03
10.585205,8.92,-0.4,-4.19,-0.02,0.25,-0.03
10.658203,9,0.58,-4.61,0.39,-0.1,-0.48
10.731201,6.67,0.31,-3.39,-0.24,0.14,-0.05
10.804199,8.21,-0.09,-3.56,-0.55,-0.12,0.23
10.877197,9.13,-0.41,-2.99,-0.79,-0.14,0.29
10.950195,10.17,0.38,-2.2,-0.68,-0.02,0.07
11.023193,10.82,-0.18,-1.18,-0.76,0.59,0.02
11.096191,11.35,0.56,-6.41,0.03,0.1,-0.25
11.169189,9.3,1.84,-6.18,-0.76,0.37,0.29
11.2421875,8.99,-0.16,-3.91,-0.24,-0.22,0.08
11.315186,7.11,-0.48,-3.53,-0.36,-0.02,0.21
11.388184,7.09,0.73,-2.69,0.37,-0.22,-0.12
11.461182,9,1.77,-3.8,0.66,-0.55,-0.34
11.53418,9.65,0.59,-1.87,0.16,0.1,0.15
11.607178,10.87,-0.01,-2.28,0.17,0.11,0.31
11.680176,13.62,0.59,-4.77,0.98,0.09,-0.18
11.753174,8.9,0.52,-6.96,0.03,0.29,-0.2
11.826172,8.54,-0.83,-4.6,-0.06,0.08,0.25
11.89917,8.72,0.47,-4.85,0.2,-0.09,-0.27
11.972168,7.02,0.02,-3.32,-0.1,0.2,0
12.045166,8.24,-0.37,-3.52,-0.37,-0.06,0.09
12.118164,9.21,-0.63,-2.64,-0.5,0.04,0.12
12.191162,9.88,0.11,-2.28,-0.3,0.21,-0.13
12.26416,11.7,-0.34,-1.01,-0.37,0.54,-0.25
12.337158,12.17,0.27,-6.55,-0.14,0.08,-0.11
12.410156,8.47,0.92,-6.08,-0.45,0.49,0.31
12.483154,8.19,1.03,-4.33,-0.02,-0.13,-0.06
12.556152,7.79,0.29,-3.22,-0.24,-0.12,0.1
12.62915,7.09,0.68,-2.67,0.09,-0.2,-0.01
12.702148,9.37,1.82,-3.73,0.37,-0.45,-0.18
12.7751465,9.44,0.86,-2,0.15,0.04,0.06
12.848145,9.99,0.14,-2.53,0.21,0.18,0.32
12.921143,12.41,-0.27,-1.18,0.56,0.51,0.29
12.994141,11.57,1.02,-7.87,0.71,-0.25,-0.12
13.067139,7.66,-0.63,-4.26,-0.05,0.54,0.04
13.140137,9.61,-0.07,-4.69,0.19,-0.26,-0.07
13.213135,6.98,0.04,-3.61,-0.12,-0.02,-0.2
13.286133,7.47,-0.33,-3.45,-0.37,-0.01,0.1
13.359131,9,-0.46,-3.58,-0.69,-0.29,0.15
13.432129,9.72,-0.08,-2.74,-0.66,-0.08,0.05
13.505127,9.95,0.61,-2.94,-0.75,0,-0.08
13.578125,10.98,0.07,-1.6,-1.22,0.54,0.13
13.651123,11.77,0.39,-7.21,-1.14,-0.15,0.14
13.724121,8.16,1.14,-5.3,-1.38,0.66,0.41
13.797119,9.12,0.46,-4.05,-0.24,-0.39,-0.25
13.870117,7.38,-0.51,-3.63,-0.28,-0.01,-0.09
13.943115,7.02,0.53,-3.37,0.43,-0.22,-0.17
14.016113,9.64,1.71,-3.92,0.95,-0.5,-0.53
14.089111,9.26,0.75,-2.59,0.79,0.11,-0.13
14.162109,9.64,-0.52,-2.78,0.76,0.16,0.34
14.235107,11.09,0.5,-2.24,1.23,0.18,0.16
14.308105,11.91,0.42,-3.99,1.78,0.14,-0.34
14.3811035,9.11,1.29,-7.37,0.75,0.21,-0.17
14.454102,8.28,-0.78,-4.5,0.49,0.08,-0.17
14.5271,8.69,0.6,-4.17,0.36,-0.05,-0.28
14.600098,7.14,0.28,-3.41,-0.16,0.14,0.07
14.673096,8.54,-0.59,-3.3,-0.41,-0.07,0.17
14.746094,9.11,-0.63,-2.73,-0.51,-0.04,0.11
14.819092,10.13,-0.03,-2.28,-0.36,-0.02,-0.16
14.89209,11.11,-0.27,-1.65,-0.47,0.16,-0.24
14.965088,11.6,-1.28,-3.18,-0.31,0.51,-0.13
15.038086,11.04,0.58,-7.1,-0.12,0.18,0.14
15.111084,8.36,1.34,-5.39,0.29,0.12,-0.16
15.184082,8.4,-0.08,-3.75,0.2,0.09,0.05
15.25708,6.64,-0.22,-2.81,0.33,0.12,0.06
15.330078,8.28,1.52,-3.47,0.9,-0.23,-0.24
15.403076,8.93,1.27,-2.98,0.55,-0.1,-0.16
15.476074,9.54,0.33,-2.14,0.4,0.1,0.18
15.549072,10.32,0.76,-2.44,0.64,0.04,0.02
15.62207,11.96,0.54,-1.74,1.25,0.38,-0.36
15.695068,11.43,0.26,-7.52,0.93,-0.38,-0.37
15.768066,7.57,-2.21,-4.81,0.43,0.2,-0.11
15.841064,9.53,-0.44,-4.71,0.75,-0.22,-0.12
15.9140625,7.03,0.54,-3.92,0.59,-0.06,-0.33
15.987061,7.63,-0.88,-2.9,0.17,0.01,0.11
16.060059,9.08,-0.86,-3.44,0.02,-0.3,0.01
16.133057,9.53,-0.33,-2.51,-0.03,-0.04,-0.08
16.206055,10.19,0.37,-2.29,-0.09,0.14,-0.23
16.279053,11.52,0.1,-1,-0.16,0.66,-0.35
16.35205,11.48,-0.49,-7.37,0.21,0.1,-0.13
16.425049,9.24,-0.24,-5.63,-0.43,0.73,0.41
16.498047,8.64,-0.78,-4.14,0.44,-0.09,-0.13
16.571045,7.66,-0.2,-3.91,0.68,-0.1,-0.17
16.644043,7.36,0.52,-3.26,1.06,0,-0.3
16.717041,8.78,1.61,-3.74,1.23,-0.52,-0.48
16.79004,9.3,1.17,-2.63,0.91,-0.18,-0.27
16.863037,9.99,0.65,-2.84,0.53,0.17,0.18
16.936035,11.81,0.68,-1.28,0.5,0.41,0.19
17.009033,11.77,0.44,-5.73,0.8,0.03,0.02
17.082031,8.66,-0.22,-6.09,0.25,0.4,0.04
17.15503,9.23,-0.41,-4.45,0.37,-0.01,-0.09
17.228027,7.79,0.79,-4.18,0.04,0.11,-0.25
17.301025,7.63,-0.22,-3.04,-0.35,0.27,0.19
17.374023,8.62,-0.82,-2.99,-0.64,-0.06,0.21
17.447021,9.3,-0.37,-2.56,-0.57,0.01,0.06
17.52002,9.96,0.2,-2.3,-0.54,0.09,-0.04
17.593018,10.9,-0.35,-1.29,-0.79,0.37,-0.05
17.666016,11.69,-0.69,-3.99,-0.54,0.3,-0.03
17.739014,10.23,0.96,-5.53,-0.5,0.25,0.18
17.812012,8.02,2.18,-4.87,-0.19,0.04,-0.13
17.88501,8.58,0.38,-3.03,-0.37,-0.18,0.05
17.958008,6.85,0.3,-2.67,-0.24,-0.02,0.09
18.031006,8.7,1.56,-3.18,0.43,-0.35,-0.26
18.104004,9.59,1.44,-2.8,0.29,-0.33,-0.19
18.177002,9.42,0.81,-1.89,-0.16,0.13,0.31
18.25,10.31,1.09,-1.98,0.06,0.14,0.4
18.322998,11.89,0.68,-0.52,0.6,0.41,0.03
18.395996,11.46,0.93,-7.88,0.69,-0.09,-0.04
18.468994,8.58,-0.75,-4.43,0.06,0.46,-0.03
18.541992,8.9,0.12,-4.33,0.15,-0.04,0
18.61499,7.34,0.85,-3.88,-0.24,-0.02,-0.09
18.687988,7.71,-0.21,-3.24,-0.72,0.04,0.31
18.76123,9.41,-0.59,-3.64,-0.91,-0.37,0.3
18.834229,9.53,-0.27,-2.69,-0.76,-0.18,0.05
18.907227,9.36,0.52,-2.5,-0.81,0.06,0.02
18.980225,10.93,0.47,-1.69,-1.05,0.21,-0.04
19.053223,11.22,-0.22,-3.24,-0.9,0.38,-0.14
19.12622,11.51,0.82,-6.04,-0.92,0.03,0.23
19.199219,7.73,1.33,-5.67,-0.81,-0.01,0.2
19.272217,8.43,1.52,-4.51,-0.45,-0.18,-0.11
19.345215,6.93,0.41,-3.44,-0.55,-0.28,-0.05
19.418213,8.13,1.31,-3.76,-0.3,-0.18,0.08
19.49121,8.9,1.92,-3.67,-0.1,-0.16,-0.07
19.564209,8.87,1.04,-2.77,-0.26,0.03,0.3
19.637207,9.81,0.44,-2.26,0.03,0.15,0.38
19.710205,10.56,1.44,-2.24,0.39,0.35,0.23
19.783203,12.43,1.88,-5.09,0.57,0.04,-0.13
19.856201,9.86,0.53,-5.43,0.13,0.41,-0.21
19.9292,7.95,-0.61,-5.07,-0.27,0.37,0.4
20.002197,8.94,0.51,-4.06,-0.08,0.04,-0.08
20.075195,7.5,0.82,-3.33,-0.55,0.2,0.04
20.148193,7.94,0.05,-3.51,-1.06,-0.13,0.28
20.221191,9.72,-0.36,-3.4,-1.28,-0.25,0.26
20.29419,9.04,-0.27,-2.38,-1.05,0.05,0.14
20.367188,9.36,0.46,-2.25,-0.76,0.02,0.02
20.440186,10.08,-0.09,-1.61,-0.91,0.1,-0.03
20.513184,11.64,-0.24,-3.28,-0.6,0.23,-0.14
20.586182,11.68,1.17,-6.93,-0.47,-0.11,0
20.65918,7.53,1.02,-4.03,-0.39,0.48,0.16
20.732178,8.92,0.48,-3.54,0,-0.1,-0.02
20.805176,7.39,0.03,-2.67,0.01,0.08,0.06
20.878174,8.66,1.37,-3.09,0.51,-0.17,-0.13
20.951172,9.24,1.84,-2.5,0.55,-0.04,-0.28
21.02417,8.92,0.45,-1.62,0.17,0.24,0.26
21.097168,10.81,0.22,-1.54,0.33,0.02,0.37
21.170166,13.59,1.8,-5.11,1.12,-0.27,-0.23
21.243164,10.06,-0.21,-5.62,-0.06,0.17,-0.03
21.316162,7.83,-0.91,-5.23,0.21,0.44,0.45
21.38916,7.97,0.18,-3.71,0.56,0.05,-0.26
21.462158,7.29,0.86,-3.44,0,0.16,-0.03
21.535156,8.66,-0.54,-3.6,-0.6,-0.07,0.23
21.608154,9.68,-0.83,-2.67,-0.76,-0.04,0.16
21.681152,8.81,0.63,-2.52,-0.53,0.08,-0.1
21.75415,9.97,0.54,-1.56,-1.02,0,0.03
21.827148,11.12,-0.2,-0.57,-1.31,0.29,0.03
21.900146,11.45,-0.47,-5.64,-0.66,0.06,-0.07
21.973145,9.49,1.23,-6.11,-0.82,-0.04,0.09
22.046143,8.63,0.42,-4.29,-0.3,-0.28,-0.19
22.11914,7.78,0.16,-3.96,-0.28,-0.14,-0.05
22.192139,7.12,0.71,-3.3,0.29,-0.17,-0.14
22.265137,9.51,2.36,-3.89,0.62,-0.47,-0.39
22.338135,9.16,1.01,-2.5,0.33,0.02,-0.02
22.411133,9.49,0.35,-2.77,0.35,0.04,0.27
22.48413,12.4,-0.65,-2.14,0.72,0.1,0.24
22.557129,12.09,1.52,-8.88,0.7,-0.11,0.13
22.630127,8.43,-0.03,-5.45,0.41,0.81,0.12
22.703125,7.77,1.37,-5.01,0.57,0.44,-0.12
22.776123,6.87,1.48,-3.69,-0.02,0.44,-0.21
22.849121,8.03,0.39,-3.66,-0.95,0.19,0.25
22.92212,9.47,-0.85,-3.88,-1.46,0.04,0.4
22.995117,8.98,-0.47,-2.69,-1.22,0.09,0.22
23.068115,9.37,1.05,-2.47,-1.07,-0.04,0.14
23.141113,10.53,0.75,-1.96,-1.37,0.05,0.07
23.214111,10.36,-0.3,-0.97,-1.2,0.66,-0.14
23.28711,12.42,1.02,-6.88,-0.84,-0.3,-0.13
23.360107,7.85,1.06,-5.32,-1.28,0.35,0.08
23.433105,9.28,0.69,-3.95,-0.79,-0.28,-0.02
23.506104,7.3,-0.02,-3.33,-0.81,0.01,0.12
23.579102,7.56,0.56,-2.8,-0.24,-0.19,0.11
23.6521,10.11,2.34,-3.11,0.32,-0.28,-0.29
23.725098,9.04,1.27,-2.28,-0.07,0.13,0.14
23.798096,9.26,-0.27,-1.95,-0.09,0.19,0.52
23.871094,10.76,0.61,-1.8,0.43,-0.07,0.31
23.944092,11.81,1.78,-1.21,1.04,0.29,-0.14
24.01709,10.99,1.76,-5.33,0.7,0.15,-0.12
24.090088,8.24,-0.78,-5,-0.3,0.12,0.09
24.163086,9.3,-0.76,-4.07,-0.38,-0.1,0.19
24.236084,7.83,0.81,-3.72,-0.09,0.06,-0.18
24.309082,7.79,0.73,-3.16,-0.57,0.16,0.03
24.38208,8.98,-0.54,-2.77,-1.05,-0.07,0.17
24.455078,9.68,-0.43,-2.26,-1.1,0.02,0.17
24.528076,9.76,0.59,-2.12,-0.85,0.13,-0.1
24.601074,10.3,0.24,-1.42,-1.28,0.28,-0.05
24.674072,12.02,-0.2,-3.47,-0.84,0.29,-0.15
24.74707,10.57,2.05,-6.89,-1.18,-0.01,0.11
24.820068,7.16,1.12,-3.86,-0.55,0.03,-0.26
24.893066,9.36,0.76,-3.86,-0.66,-0.65,-0.13
24.966064,7.22,0.37,-2.57,-0.22,-0.04,-0.06
25.039062,8.37,2.21,-3.57,0.43,-0.3,-0.2
25.11206,8.66,1.77,-2.62,0.32,-0.05,-0.01
25.185059,9.56,1.33,-2.53,0.4,-0.09,0.1
25.258057,9.51,1.36,-2.64,0.5,0.1,0.26
25.331055,11.04,1.27,-1.56,0.62,0.15,0.18
25.404053,10.94,0.95,-5.75,1.12,0.06,-0.07
25.47705,9.43,0.79,-7.68,0.18,-0.12,0.06
25.550049,8.81,-0.19,-5.2,0.12,-0.06,-0.07
25.623047,8.74,0.7,-4.52,-0.36,0.05,-0.03
25.696045,7.71,-0.49,-3.67,-0.85,0.25,0.42
25.769043,9.17,0.5,-4.43,-0.75,-0.11,0.1
25.842041,8.66,0.75,-3.83,-0.83,-0.02,0.08
25.91504,8.77,0.07,-2.6,-1.08,0.04,0.38
25.988037,10.07,0.35,-2.54,-0.88,-0.07,0.05
26.061035,10.2,0.78,-2.75,-0.69,0.31,-0.14
26.134033,11.96,1.58,-5.41,-0.38,-0.01,-0.4
26.207031,9.24,1.43,-5.15,-0.89,0.26,-0.06
26.28003,6.86,0.92,-3.56,-0.69,0.16,0.15
26.353027,8.54,1.15,-3.52,-0.4,-0.24,0.01
26.426025,7.89,1.89,-3.24,0.03,-0.18,-0.08
26.499023,8.92,2.63,-2.99,0.23,-0.18,-0.04
26.572021,8.94,1.8,-2.59,0.02,-0.08,0.27
26.64502,10.01,1.13,-2.43,0.05,0,0.45
26.718018,11.22,1.31,-1.48,0.32,0.29,0.36
26.791016,11.81,1.66,-4.75,1.04,0.27,-0.19
26.864014,9.19,0.37,-6.26,-0.24,0.29,0.22
26.937012,9.22,-0.52,-4.3,-0.26,0.1,0.23
27.01001,8.85,1.33,-4.61,-0.2,0.04,-0.18
27.083008,6.68,0.68,-3.13,-0.73,0.31,0.14
27.156006,8.05,-0.47,-3.19,-1.11,0.06,0.34
27.229004,9.72,-0.29,-2.61,-1.12,-0.05,0.24
27.302002,9.79,0.53,-2.14,-0.97,0.03,-0.03
27.375,10.21,0.08,-1.78,-1.14,0.19,-0.06
27.447998,10.61,-0.85,-1.49,-1.04,0.61,0.13
27.520996,12.28,1.03,-7.39,-0.36,-0.53,-0.17
27.593994,7.85,2.03,-4.06,-0.42,0.27,0.03
27.666992,9.16,0.88,-3.84,0.21,-0.2,-0.21
27.73999,6.92,0.87,-2.6,0,0.06,-0.06
27.812988,7.92,2.34,-2.88,0.52,-0.05,-0.14
27.88623,9.43,2.61,-2.94,0.37,-0.22,-0.11
27.959229,9.58,1.71,-1.9,-0.04,0.1,0.23
28.032227,9.58,1.39,-2.04,-0.19,0.2,0.44
28.105225,10.85,1.92,-0.8,0.02,0.3,0.23
28.178223,11.97,1.6,-5.17,0.23,-0.07,-0.06
28.25122,9.22,-0.99,-4.37,-0.15,0.26,-0.13
28.324219,9.4,-0.07,-5.01,-0.13,-0.13,0.2
28.397217,8.64,0.61,-3.99,-0.08,-0.18,-0.14
28.470215,7.51,0.18,-2.92,-0.46,0.1,0.17
28.543213,8.3,-0.42,-2.79,-0.62,-0.16,0.18
28.61621,9.32,-0.27,-2.46,-0.52,-0.13,0.06
28.689209,9.96,0.52,-2.15,-0.38,-0.03,-0.08
28.762207,10.38,-0.45,-1.66,-0.49,0.34,-0.12
28.835205,11.4,-0.84,-3.4,-0.28,0.39,-0.03
28.908203,10.68,0.55,-5.48,-0.2,0.14,0.18
28.981201,7.98,2.46,-4.99,0.55,-0.01,-0.36
29.0542,9.34,0.8,-3.58,0.15,-0.16,0.01
29.127197,6.96,0.05,-2.92,0.07,0.14,0.21
29.200195,8.28,1.43,-3.22,0.85,-0.21,-0.27
29.273193,8.85,1.57,-2.65,0.63,-0.13,-0.13
29.346191,9.38,0.48,-2.16,0.41,0,0.2
29.41919,9.93,0.81,-2.47,0.62,0,0.09
29.492188,11.92,1.31,-1.24,1.21,0.36,-0.41
29.565186,11.94,0.57,-6.73,0.94,-0.16,-0.39
29.638184,8.05,-1.41,-4.31,0.23,0.42,-0.17
29.711182,9.98,-0.29,-4.37,0.55,-0.16,-0.07
29.78418,7.81,0.27,-3.73,0.28,0.07,-0.21
29.857178,7.36,-0.78,-2.71,0.03,0.15,0.17
29.930176,8.7,-0.55,-3.02,-0.1,-0.17,0.06
30.003174,9.06,-0.46,-2.11,-0.08,0.06,-0.03
30.076172,9.74,-0.16,-1.56,0.1,0.04,-0.22
30.14917,10.18,-0.28,-1.33,0.1,0.21,-0.23
30.222168,10.94,-1.5,-0.67,0.09,0.68,-0.06
30.295166,12.13,-0.23,-7.13,0.18,-0.1,0.3
30.368164,9.87,0.7,-4.3,0.58,0.45,0.01
30.441162,9.38,0.61,-4.31,0.77,-0.05,-0.23
30.51416,6.71,-0.7,-2.65,0.6,0.26,0.14
30.587158,7.96,0.65,-3.19,1.21,-0.24,-0.18
30.660156,8.83,1.39,-2.47,1.14,-0.09,-0.27
30.733154,9.47,0.32,-1.31,0.85,-0.15,-0.04
30.806152,9.98,0.15,-1.94,0.74,-0.11,0.05
30.87915,10.58,0.58,-0.89,0.94,0.13,-0.1
30.952148,12.13,0.23,-6.28,1.12,-0.41,-0.41
31.025146,9.87,-1.56,-4.9,0.11,0.19,-0.11
31.098145,9.64,-1.13,-5.15,0.52,-0.16,0.25
31.171143,8,0.31,-4.33,0.84,-0.14,-0.47
31.24414,7.1,-0.78,-2.69,0.41,0.2,0.04
31.317139,8.59,-1.11,-3.04,0.13,-0.11,0.01
31.390137,9.53,-0.64,-2.56,0.13,0.02,-0.15
31.463135,9.47,-0.15,-2.29,-0.04,0.15,-0.14
31.536133,10.75,-0.41,-1.51,-0.22,0.26,-0.16
31.60913,10.92,-0.89,-0.61,0.19,0.85,-0.42
31.682129,11.43,-0.24,-7.63,0.15,-0.05,-0.01
31.755127,8.11,-0.19,-4.33,0.04,0.33,0.21
31.828125,9.29,-0.19,-3.86,0.83,-0.3,-0.18
31.901123,7.47,0.12,-3.09,0.81,-0.2,-0.11
31.974121,8.36,0.84,-3.52,0.98,-0.28,-0.1
32.04712,9.07,1.07,-3.04,0.86,-0.2,-0.18
32.120117,9.54,-0.05,-1.9,0.72,0.06,0.06
32.193115,10.03,0.03,-2.58,0.69,0.05,0.12
32.266113,11.48,0.12,-0.74,1.02,0.41,-0.13
32.33911,11.6,-0.39,-6.38,1.19,-0.12,-0.26
32.41211,8.85,-1.11,-5.12,0.31,0.34,-0.15
32.485107,9.26,-0.83,-3.94,0.52,-0.09,-0.04
32.558105,7.63,0.44,-3.78,0.33,0.01,-0.26
32.631104,7.58,-0.79,-2.76,-0.01,0.18,0.1
32.7041,8.98,-1.16,-2.96,-0.25,-0.32,0.03
32.7771,9.5,-0.69,-2.12,-0.18,-0.05,-0.13
32.850098,9.77,0.16,-1.78,-0.13,0.1,-0.22
32.923096,10.92,-0.37,-0.93,-0.44,0.45,-0.2
32.996094,12.53,-0.95,-4.93,-0.06,0.11,-0.25
33.06909,9.22,0.43,-5.76,-0.2,0.53,0.12
33.14209,8.68,-0.16,-3.96,0.24,-0.04,-0.05
33.215088,8.29,-0.5,-3.3,0.3,-0.02,0.05
33.288086,6.96,-0.13,-3.09,0.62,-0.08,0.02
33.361084,8.83,1.2,-3.24,0.93,-0.36,-0.23
33.434082,9.43,0.75,-1.96,0.91,-0.17,-0.27
33.50708,9.63,0.06,-1.97,0.78,0.12,0.09
33.58008,10.7,0.32,-1.53,0.68,0.14,0.1
33.653076,11.6,-0.65,-2.2,0.85,0.36,0.11
33.726074,10.68,0.01,-6.76,0.5,-0.28,0.07
33.799072,9.03,-1.44,-5.14,0.4,-0.1,-0.11
33.87207,9.63,0.65,-4.18,0.73,-0.11,-0.55
33.94507,6.5,-0.18,-2.96,0.28,0.24,-0.18
34.018066,8.02,-0.82,-2.99,-0.16,-0.03,0.23
34.091064,9.24,-0.95,-2.67,-0.36,-0.16,0.09
34.164062,8.79,-0.44,-2.75,-0.24,-0.02,-0.01
34.23706,9.96,0.22,-2.33,-0.21,0.17,-0.21
34.31006,11.31,-0.73,-1,-0.52,0.53,-0.27
34.383057,12.35,-0.93,-5.41,-0.18,0.09,-0.04
34.456055,9.22,0.47,-4.82,-0.04,0.45,0.13
34.529053,9.97,0.97,-4.31,0.53,-0.2,-0.33
34.60205,6.85,-0.55,-3.05,0.13,0.17,0.06
34.67505,6.84,0,-3.13,0.55,-0.04,0.03
34.748047,9.16,1.39,-3.04,0.89,-0.28,-0.3
34.821045,9.47,0.86,-2.01,0.66,-0.02,-0.08
34.894043,9.97,0.08,-2.34,0.47,0.01,0.22
34.96704,11.52,0.63,-1.05,0.85,0.27,0.02
35.04004,11.85,-0.37,-4.47,1.64,0.02,-0.37
35.113037,9.29,-0.16,-6.57,0.38,0.24,-0.09
35.186035,8.68,-2.48,-3.33,0.36,0.14,0.09
35.259033,8.65,-0.04,-4.18,0.46,-0.1,-0.31
35.33203,7.07,-0.27,-2.48,0.08,0.09,-0.08
35.40503,8.97,-1.11,-2.93,-0.34,-0.19,0.24
35.478027,9.36,-1.62,-2.21,-0.18,-0.08,-0.01
35.551025,9.79,-0.56,-1.54,0.26,-0.03,-0.42
35.624023,10.19,-0.14,-1.26,0.12,0.23,-0.45
35.69702,11.31,-0.86,-1.27,0.2,0.66,-0.34
35.77002,11.74,0.31,-6.08,0.09,-0.06,-0.08
35.843018,8.45,0.74,-4.33,0.12,0.48,0.06
35.916016,9.58,0.47,-3.65,0.45,-0.1,-0.1
35.989014,7.54,0.03,-2.5,0.56,0.12,-0.07
36.06201,7.76,1.39,-3,0.98,-0.33,-0.21
36.13501,8.9,1.99,-2.79,0.66,-0.31,-0.14
36.208008,8.96,1.19,-2.09,0.37,-0.06,0.1
36.281006,9.98,0.16,-1.59,0.35,-0.03,0.27
36.354004,11.69,-0.21,-0.64,0.62,0.09,0.16
36.427002,12.33,-0.28,-4.92,1.21,-0.15,-0.12
36.5,8.99,0.55,-6.62,0.35,0.11,-0.13
36.572998,8.58,-1.26,-3.55,0.15,0.02,0.16
36.645996,7.93,-0.24,-4.36,0.26,-0.02,-0.09
36.718994,7.34,-0.78,-2.95,0.13,0.01,0.07
36.791992,9.07,-1.21,-3.21,-0.05,-0.42,0
36.86499,9.34,-0.67,-3.08,-0.17,-0.39,-0.06
36.93799,9.58,0.06,-2.54,-0.31,-0.18,-0.02
37.01123,11.34,-0.65,-1.53,-0.7,0.05,0.05
37.08423,12.62,-1.35,-4.73,-0.68,0,0.01
37.157227,10.8,0.31,-8.08,-0.46,0.1,0.37
37.230225,9.1,2.05,-7.04,0.08,0.13,-0.05
37.303223,8.62,0.97,-4.64,0.12,-0.05,-0.07
37.37622,5.56,0.62,-3.71,-0.06,0.09,-0.12
37.44922,6.56,1.14,-3.76,-0.14,0.11,0
37.522217,8.2,1.14,-3.25,-0.2,-0.04,0.11
37.595215,9.32,0.66,-2.77,-0.1,0.22,0.22
37.668213,10.3,0.84,-2.65,0.02,0.3,0.28
37.74121,11.66,0.76,-1.84,0.32,0.6,0.13
37.81421,11.28,1.63,-7.09,0.22,0.12,0.01
37.887207,8.62,-0.58,-5.2,-0.45,0.4,-0.06
37.960205,9.58,0.73,-4.55,-0.23,0.26,-0.14
38.033203,6.88,0.84,-3.58,-0.36,0.19,-0.27
38.1062,7.54,0.39,-3.09,-1,0.18,0.29
38.1792,9.1,-0.44,-2.66,-1.16,-0.18,0.27
38.252197,9.54,0.11,-2.18,-1.03,-0.07,0.23
38.325195,9.75,0.39,-2.01,-0.91,0,0.09
38.398193,10.94,-0.78,-0.7,-1.16,0.43,0.34
38.47119,12.22,-0.71,-5.11,-0.34,0.08,0.02
38.54419,8.85,1.48,-5.53,-0.16,0.58,0.16
38.617188,9.94,0.07,-3.22,0.06,-0.16,-0.1
38.690186,7.81,-0.31,-3.01,-0.06,0.14,0.13
38.763184,7.09,0.05,-2.5,0.46,-0.09,-0.06
38.83618,8.69,1.24,-2.69,0.62,-0.21,-0.24
38.90918,9.43,0.55,-1.77,0.31,-0.07,0.07
38.982178,10.48,-0.2,-1.77,0.38,-0.07,0.19
39.055176,11.36,0.2,-0.7,0.75,0.21,0
39.128174,12.06,0.08,-4.73,1.08,-0.23,-0.35
39.20117,9.39,-0.51,-5.66,0.41,0.18,-0.27
39.27417,9,-0.92,-4.2,0.28,-0.01,-0.07
39.347168,7.83,0.24,-3.6,0.16,0.06,-0.26
39.420166,6.86,-0.23,-2.41,-0.17,0.24,0.03
39.493164,8.95,-0.8,-2.82,-0.43,-0.14,0.1
39.566162,9.79,-1.03,-1.94,-0.43,0.02,-0.08
39.63916,9.5,0.14,-1.5,-0.3,0.12,-0.2
39.71216,10.6,-0.3,-0.7,-0.45,0.28,-0.2
39.785156,11.98,-1.23,-2.33,-0.1,0.43,-0.18
39.858154,11.74,0.72,-6.03,-0.08,0.03,0.04
39.931152,7.74,0.46,-4.19,0.12,0.21,-0.08
40.00415,8.73,0.15,-3.54,0.27,-0.14,0.05
40.07715,7.3,-0.2,-2.9,0.46,-0.11,-0.03
40.150146,8.36,1.2,-3.17,0.83,-0.29,-0.16
40.223145,9.02,1.34,-2.39,0.75,-0.24,-0.18
40.296143,9.26,0.48,-1.73,0.56,-0.06,0.04
40.36914,9.97,0.18,-2.02,0.51,-0.02,0.21
40.44214,12.07,0.58,-0.54,0.82,0.24,0.03
40.515137,11.41,0.55,-4.89,1.07,0.01,-0.18
40.588135,9.02,-0.35,-5.8,0.02,0.36,0.15
40.661133,9.38,-0.75,-4.39,0.14,-0.09,-0.01
40.73413,8.22,0.52,-4.05,-0.17,0.01,-0.18
40.80713,7.46,-0.41,-2.98,-0.52,0.11,0.13
40.880127,8.6,-1.19,-3.18,-0.75,-0.2,0.12
40.953125,9.19,-1.01,-2.33,-0.53,-0.09,-0.04
41.026123,9.92,0.07,-1.88,-0.23,-0.02,-0.26
41.09912,10.49,-0.54,-1.33,-0.38,0.28,-0.25
41.17212,11.28,-1.65,-0.68,0.27,0.79,-0.4
41.245117,11.59,-0.18,-6.63,0.34,0.16,0.05
41.318115,8.31,0.07,-4.55,0.58,0.46,-0.04
41.391113,9.66,-1.1,-3.72,0.87,0.06,0.12
41.46411,7.14,-1.14,-3.19,1.34,0.07,-0.06
41.53711,8.34,0.95,-3.94,1.88,-0.3,-0.28
41.610107,8.81,0.98,-2.75,1.63,-0.15,-0.27
41.683105,9.68,-0.32,-1.9,1.38,-0.08,0.07
41.756104,9.76,-0.52,-2.46,1.38,-0.16,0.1
41.8291,10.88,0.92,-1.65,1.59,-0.13,-0.17
41.9021,10.26,-0.09,-1.68,1.77,0.2,-0.39
41.975098,10.19,-1.09,-6.24,1.27,-0.37,-0.13
42.048096,9.82,-4.03,-3.77,0.64,0.15,0.21
42.121094,8.99,-1.73,-4.19,1.3,-0.43,-0.36
42.19409,6.47,-0.79,-2.75,1.19,-0.02,-0.34
42.26709,8.45,-2.07,-2.77,0.74,-0.28,0.11
42.340088,9.98,-2.2,-2.96,0.62,-0.23,-0.24
42.413086,9.09,-1.57,-1.63,0.76,0.01,-0.5
42.486084,9.54,-0.92,-1.69,0.7,0.16,-0.47
42.559082,10.62,-0.96,-0.97,0.66,0.37,-0.59
42.63208,12.93,-1.76,-6.79,0.19,-0.46,-0.07
42.70508,8.95,-1.94,-5.49,0.49,0.47,-0.08
42.778076,9.61,-0.82,-4.4,1.01,-0.03,-0.13
42.851074,7.72,-0.52,-3.99,1.2,0.1,-0.38
42.924072,7.75,0.09,-3.65,1.33,-0.04,-0.33
42.99707,8.65,0.35,-3.52,1.17,-0.07,-0.39
43.07007,8.01,0.03,-2.28,1.06,0.11,-0.19
43.143066,9.72,0.25,-1.85,1.05,0.02,-0.07
43.216064,10.4,0.93,-1.86,0.81,0.01,-0.09
43.289062,12.07,-0.54,-1.18,0.77,0.31,0
43.36206,11.74,0.51,-7.03,0.46,-0.32,-0.2
43.43506,7.29,-1.84,-3.99,-0.22,0.53,0.09
43.508057,10.84,0.33,-5.28,0.25,-0.06,-0.19
43.581055,7.09,0.42,-3.54,-0.21,0.35,-0.28
43.654053,7.23,-0.88,-2.96,-0.78,0.31,0.35
43.72705,9.19,-1.12,-3.04,-0.91,-0.19,0.26
43.80005,9.48,-0.35,-2.26,-0.67,0.05,0.05
43.873047,9.83,-0.2,-1.67,-0.6,0.09,-0.09
43.946045,10.73,-1.17,-0.23,-0.73,0.46,0.08
44.019043,11.73,-0.88,-4.01,-0.1,0.24,-0.09
44.09204,11.15,1.37,-5.73,-0.32,0.3,0.04
44.16504,8.31,0.84,-4.22,-0.26,0.08,-0.03
44.238037,8.56,-0.51,-3.26,-0.28,-0.05,0.11
44.311035,6.68,-0.09,-2.3,0.08,0,-0.01
44.384033,8.77,1.48,-3.17,0.43,-0.25,-0.15
44.45703,9.22,0.9,-2.16,0.2,-0.02,-0.04
44.53003,9.43,-0.09,-1.48,0.15,0.09,0.28
44.603027,10.13,0.08,-1.77,0.31,-0.03,0.34
44.676025,11.53,0.35,-0.16,0.89,0.31,-0.04
44.749023,11.63,0.73,-5.04,1.24,-0.03,-0.4
44.82202,9.49,-0.36,-5.14,-0.13,0.27,0.04
44.89502,9.04,-2.1,-3.32,-0.61,0.32,0.5
44.968018,7.95,0.59,-4.12,-0.27,0.05,-0.2
45.041016,7.46,-0.41,-2.39,-0.55,0.19,0.04
45.114014,9.01,-1.24,-2.88,-0.96,-0.17,0.1
45.18701,9.36,-1.11,-2.47,-1,-0.11,0.04
45.26001,9.48,-0.95,-1.65,-0.79,-0.03,-0.1
45.333008,9.34,-1.21,-1.6,-0.88,0.02,-0.04
45.406006,10.89,-1.75,-0.5,-0.6,0.21,-0.03
45.479004,13.14,-0.69,-4.22,-0.29,-0.24,-0.02
45.552002,9.96,1.15,-5.15,-0.06,0.31,-0.12
45.625,8.41,2.75,-4.64,0.01,0.06,-0.25
45.697998,9.37,0.77,-3.53,-0.57,-0.26,-0.02
45.770996,7.14,-0.45,-3.2,-0.74,0.14,0.28
45.843994,7.65,0.64,-2.93,0,-0.08,0.09
45.916992,8.68,0.98,-2.23,0.4,-0.19,-0.1
45.98999,10.01,0.4,-2.47,0.09,-0.18,0.31
46.06299,10.6,0.19,-1.6,0.53,0.08,0.22
46.13623,10.76,0.75,-1.5,1.44,0.47,-0.34
46.20923,12.47,-0.21,-7.2,1.45,-0.67,-0.35
46.282227,8.6,-2.57,-4.91,0.22,0.57,-0.01
46.355225,8.31,-3.56,-3.02,-0.01,0.01,0.76
46.428223,7.76,-0.36,-4.19,0.48,-0.19,-0.18
46.50122,7.37,-0.56,-2.41,0.1,0.21,-0.11
46.57422,9.31,-1.05,-3.47,-0.57,-0.32,-0.06
46.647217,9.64,-0.76,-3.45,-1.16,-0.08,0.01
46.720215,9.75,-0.03,-3.53,-1.47,0.05,-0.39
46.793213,8.87,-0.99,-4.37,-2.46,0.61,0.34
46.86621,9.86,-0.31,-8.17,-2.78,-0.06,0.51
46.93921,12.62,3.26,-6.93,-2.29,-0.66,0.37
47.012207,6.86,2.87,-4.77,-1.52,-0.01,-0.25
47.085205,6.08,2.28,-2.96,-1.77,0.16,0.21
47.158203,10.11,2.12,-4.7,-2.01,-0.72,0.52
47.2312,9.91,2.12,-4.65,-1.89,-0.01,0.72
47.3042,7.63,1.8,-2.89,-1.17,0.26,0.56
47.377197,8.9,3.65,-4.34,-0.86,-0.16,0.43
47.450195,8.58,3.14,-3.64,-1.18,0.08,0.63
47.523193,8.92,2.25,-2.69,-1.01,0.17,0.63
47.59619,11.3,2.5,-5.23,-0.41,-0.26,0.29
47.66919,10.94,0.33,-4.17,-0.9,0.18,0.06
47.742188,9.49,-0.43,-4.83,-1.33,0.3,0.61
47.815186,8.39,-0.49,-5.13,-1.64,0.15,0.51
47.888184,6.88,-1.94,-3.41,-2.16,0.38,1.17
47.96118,8.7,-1.07,-4.48,-1.86,-0.08,0.94
48.03418,9.32,-0.69,-3.8,-1.43,-0.01,0.29
48.107178,9.41,-0.85,-3.13,-1.68,-0.01,0.44
48.180176,9.28,-0.54,-2.29,-1.36,0.24,0.14
48.253174,10.07,-0.56,-1.77,-1.31,0.66,0.05
48.32617,11.53,-0.73,-4.67,-0.86,0.54,-0.13
48.39917,10.25,1.81,-6.24,-0.88,0.39,-0.22
48.472168,8.57,-0.05,-3.56,-0.29,0.04,-0.26
48.545166,8.44,-0.41,-3.67,-0.77,0.06,0.31
48.618164,6.32,0.05,-2.52,-0.11,0.06,0.08
48.691162,9.24,1.88,-3.26,0.53,-0.51,-0.32
48.76416,9.38,1.41,-2.27,0.35,-0.18,-0.13
48.83716,9.64,0.3,-2.35,0.32,-0.14,0.23
48.911133,11.38,0.21,-1.71,0.59,0.11,0.3
48.98413,12.23,-0.24,-2.77,1.5,0.26,-0.22
49.05713,10.11,0.03,-7.66,1.08,-0.04,-0.37
49.130127,8.98,-1.97,-4.33,0.51,0.28,-0.03
49.203125,8.73,0.03,-4.31,0.43,0.02,-0.25
49.276123,6.47,0.24,-3.18,0.07,0.24,-0.06
49.34912,8.49,-0.61,-3.46,-0.31,-0.04,0.2
49.42212,9.7,-1.11,-2.78,-0.48,-0.03,0.01
49.495117,9.11,-0.82,-2.2,-0.4,0.23,-0.02
49.568115,10.09,-0.6,-1.62,-0.3,0.24,-0.14
49.641113,10.81,-1.8,0.03,-0.23,0.6,-0.15
49.71411,12.45,-1.18,-4.87,0.16,0.07,0.05
49.78711,10.55,0.41,-5.49,0.09,0.37,0.14
49.860107,7.77,0.39,-3.97,0.3,0.12,0.05
49.933105,7.58,-0.52,-3.23,0.48,0.04,0.11
50.006104,7.2,0.13,-2.77,0.9,-0.09,-0.14
50.0791,9.82,1.59,-3.13,0.94,-0.42,-0.39
50.1521,9.22,0.61,-1.9,0.33,-0.13,-0.08
50.225098,9.24,-0.62,-1.69,0.15,0.02,0.37
50.298096,11.34,0.22,-1.5,0.54,-0.24,0.07
50.371094,10.91,0.24,-1.09,1.19,0.52,-0.33
50.44409,11.45,-0.86,-6.12,1.02,-0.38,-0.04
50.51709,8.85,-2.85,-5.35,0.22,0.21,0.18
50.590088,9.88,-1.7,-3.78,0.72,-0.19,-0.06
50.663086,6.59,0.1,-3.44,0.71,-0.01,-0.48
50.736084,7.3,-0.64,-2.37,0.21,0.16,-0.01
50.809082,9.37,-2,-2.84,-0.18,-0.12,0.12
50.88208,8.59,-1.63,-2.37,-0.13,0.12,0.03
50.95508,9.87,-0.33,-1.47,0.16,0.13,-0.3
51.028076,10.13,-0.83,-1.49,-0.46,0.2,-0.14
51.101074,11.15,-2.45,-0.9,-0.74,0.68,0.2
51.174072,12.15,-0.18,-6.25,-0.5,-0.19,0.1
51.24707,9.04,1.73,-4.69,-0.5,0.12,0
51.32007,8.95,1.42,-4.45,-0.21,-0.29,-0.28
51.393066,7.73,-0.18,-3.03,-0.59,-0.19,0.03
51.466064,7.23,-0.2,-2.97,-0.2,-0.13,0.21
51.539062,9.07,1.33,-3.21,0.26,-0.32,-0.05
51.61206,9.96,0.77,-2.39,0.22,-0.1,0.11
51.68506,9.56,-0.12,-1.72,-0.01,0.27,0.59
51.758057,10.51,0.51,-1.77,0.36,0.31,0.44
51.831055,11.27,0.82,-3.67,0.76,0.32,-0.08
51.904053,11.43,1.53,-7.77,-0.78,-0.38,0.01
51.97705,9,-0.66,-4.02,-1.24,0.87,0.15
52.05005,8.96,0.71,-5.44,-1.35,0.3,-0.14
52.123047,7.02,-0.51,-4.24,-1.95,0.54,0.37
52.196045,7.9,-0.58,-4.24,-2,0.16,0.47
52.269043,9.74,-0.87,-4.14,-2.01,-0.22,0.37
52.34204,8.91,-1.6,-2.71,-2,-0.05,0.54
52.41504,8.97,-0.82,-2.41,-1.41,-0.06,0.3
52.488037,9.97,-0.57,-1.84,-0.88,0.11,-0.05
52.561035,10.35,-1,-1.3,-0.78,0.62,-0.28
52.634033,12.85,0.4,-6.61,-0.31,-0.33,-0.56
52.70703,8.4,2.14,-5.16,-0.8,0.36,-0.2
52.78003,9.38,1.82,-4.52,-0.44,-0.06,-0.23
52.853027,6.92,0.84,-2.99,-1.08,0.29,0.12
52.926025,7.54,0.98,-2.77,-0.74,-0.06,0.15
52.999023,9.7,1.4,-3.06,-0.38,-0.32,0.05
53.07202,8.58,0.41,-1.92,-0.34,-0.01,0.2
53.14502,9.75,0.58,-1.93,-0.02,-0.12,0.5
53.218018,11.92,1.69,-1.27,0.53,0.07,0.17
53.291016,11.36,0.82,-1.96,1.39,0.51,-0.21
53.364014,11.63,-0.03,-7.19,1.21,-0.38,-0.19
53.43701,8.6,-2.78,-4.27,0.33,0.3,0.05
53.51001,8.82,-1.14,-3.84,0.58,-0.13,0.06
53.583008,6.05,0.1,-3.58,0.22,0.01,-0.22
53.656006,7.71,-0.8,-2.92,-0.22,0,0.18
53.729004,10,-1.54,-2.82,-0.54,-0.09,0.07
53.802002,8.9,-1.07,-2.03,-0.43,0.15,-0.12
53.875,10.06,-0.31,-1.75,-0.35,0.12,-0.17
53.947998,10.95,-1.03,-0.92,-0.5,0.42,-0.19
54.020996,11.66,-1.25,-3.3,-0.06,0.56,-0.36
54.093994,10.93,0.3,-6.86,-0.59,0.15,0.22
54.166992,8.13,0.21,-4.52,0.07,0.07,-0.06
54.23999,7.97,-0.33,-3.48,0.48,-0.06,-0.07
54.31299,7.34,-0.63,-2.63,0.56,-0.03,0.21
54.38623,9.23,1.52,-3.83,1.17,-0.29,-0.24
54.45923,9.32,1.24,-2.42,1.29,-0.22,-0.64
54.532227,9.03,0.66,-1.87,0.51,0.11,0.24
54.605225,10.53,-0.19,-1.92,0.39,-0.02,0.4
54.678223,11.7,0.53,-0.65,0.9,0.28,-0.04
54.75122,10.62,0.18,-4.09,1.35,0.2,-0.26
54.82422,10.55,-0.26,-6.9,0.09,0.07,0.04
54.897217,9.3,-2.92,-3.62,0,0.12,0.09
54.970215,7.67,0.54,-4.13,0.2,-0.06,-0.37
55.043213,7.19,0.46,-2.7,-0.21,0.14,-0.11
55.11621,8.92,-1.13,-2.94,-0.85,0.04,0.28
55.18921,9.21,-1.8,-2.09,-0.74,0.23,0.21
55.262207,9.32,-0.16,-1.69,-0.24,0.06,-0.14
55.335205,9.38,-0.12,-1.38,-0.46,0.13,-0.07
55.408203,11.01,-1.54,0.34,-0.44,0.43,-0.01
55.4812,10.95,-1.14,-3.84,0.27,0.31,-0.37
55.5542,11.47,0.83,-6.17,-0.23,-0.1,0.07
55.627197,9.41,-1.04,-3.45,0.16,0.05,0.02
55.700195,7.86,-0.5,-3.32,0.59,-0.03,-0.1
55.773193,7.3,0.53,-2.52,0.87,-0.15,-0.19
55.84619,8.79,1.5,-3.28,0.81,-0.22,-0.18
