NAME:,walk_111_1_1.csv,,,,,
EXPERIMENT TIME:,20/03/2024 18:37:43,,,,,
ACTIVITY TYPE:,Walking,,,,,
COUNT OF ACTUAL STEPS:,95,,,,,
,,,,,,
Time [sec],ACC X,ACC Y,ACC Z,GYRO X,GYRO Y,GYRO Z
0.07299805,10.13,-0.04,-4.67,-0.32,0.22,-0.16
0.1459961,8.22,-0.08,-3.05,-0.07,0.17,-0.19
0.21899414,10.18,0.56,-2.61,0.34,-0.07,-0.43
0.2919922,7.95,0.67,-2.69,0.11,0.1,-0.25
0.36499023,8.5,0.64,-2.42,0.04,-0.12,-0.06
0.43798828,9.28,0.73,-2.01,0.11,-0.21,-0.06
0.5109863,9.08,0.63,-1.73,0.14,-0.09,0.06
0.5839844,10.43,0.44,-1.5,0.25,-0.09,0.16
0.6569824,11.56,0.88,-1.07,0.35,0.09,0.05
0.72998047,12.29,0.81,-2.33,0.73,0.15,-0.25
0.8029785,9.22,0.33,-6.62,0.2,-0.19,-0.13
0.87597656,8.37,-1.29,-4.11,-0.08,0.23,0.22
0.9489746,9.64,0.52,-4.38,0.21,0,-0.11
1.0219727,6.15,-0.25,-2.6,-0.18,0.3,0.1
1.0949707,7.9,-1.07,-2.86,-0.26,-0.1,0.22
1.1679688,9.56,-1.23,-2.28,-0.29,-0.13,0.15
1.2409668,9.84,-0.65,-1.7,0.03,0.31,-0.05
1.3139648,11.49,-1.22,-1.27,0.06,0.64,-0.06
1.3869629,12.45,0.27,-6.72,0.54,-0.34,-0.47
1.4599609,8.63,0.51,-4.45,-0.08,0.63,0.19
1.532959,8.95,-0.48,-3.34,0.21,-0.3,-0.03
1.605957,7.73,-0.15,-2.97,0.07,-0.02,0.05
1.6789551,7.49,0.75,-2.71,0.62,-0.12,-0.27
1.7519531,8.92,2.12,-3.01,0.59,-0.17,-0.42
1.8249512,10.5,0.6,-1.48,0.15,0.01,0
1.8979492,11.1,-0.12,-1.09,0.08,0.45,0.26
1.9709473,12.7,0.59,-5.83,0.31,-0.21,0.05
2.0439453,7.35,-0.8,-4.37,-0.23,0.55,0.07
2.1169434,10,0.41,-3.95,0.28,-0.02,-0.07
2.1899414,7.55,0.87,-3.54,-0.06,0.08,-0.24
2.2629395,7.45,-0.11,-2.74,-0.61,0.09,0.21
2.3359375,9.06,-0.69,-2.18,-0.85,-0.1,0.3
2.4089355,9.14,-0.52,-1.2,-0.62,0.09,0.19
2.4819336,10.79,-0.44,-1.02,-0.48,0.01,0.02
2.5549316,12.36,-0.46,-2.57,-0.34,0.29,0
2.6279297,11.19,2.26,-7.06,-0.39,-0.01,0.03
2.7009277,8.01,1.6,-3.94,-0.72,0.32,-0.02
2.7739258,8.69,-0.03,-2.88,-0.74,-0.19,0
2.8469238,6.7,0.41,-2.27,-0.58,-0.05,0.04
2.9199219,9.17,1.16,-2.73,-0.08,-0.46,-0.18
2.99292,9.53,1.29,-2.73,-0.26,-0.27,0
3.065918,9.94,0.29,-1.63,-0.17,0.28,0.5
3.138916,12.24,0.59,-1.97,0.29,0.11,0.59
3.211914,12.58,1.06,-6.25,0.66,-0.17,0.12
3.284912,7.09,-0.09,-4.51,-0.45,0.87,0.38
3.3579102,9.82,0.33,-4.59,-0.2,-0.37,-0.07
3.4309082,7.86,-0.06,-3.66,-0.97,0.37,0.05
3.5039062,6.97,-0.52,-3.02,-1.11,0.21,0.21
3.5769043,8.99,-0.15,-3.86,-1.19,-0.09,0.07
3.6499023,8.74,-1.43,-2.2,-1.34,0.14,0.25
3.7229004,8.86,-0.58,-1.86,-0.87,-0.01,0.16
3.7958984,10.62,0.49,-1.97,-0.57,0.07,-0.18
3.8688965,12.36,-0.42,-1.97,-0.53,0.6,-0.23
3.9418945,11.81,0.94,-7.55,-0.68,0.07,-0.08
4.0148926,7.06,-0.04,-3.45,-0.86,0.43,0.12
4.0878906,9.1,-0.58,-3.17,-0.58,-0.35,0.07
4.1608887,6.69,-0.23,-2.87,-0.21,0.02,0.02
4.2338867,8.42,1.02,-2.81,0.32,-0.3,-0.06
4.306885,9.64,1.03,-2.28,0.4,-0.19,-0.18
4.379883,9.81,0.08,-1.78,0.19,0.05,0.27
4.452881,11.21,0.48,-1.42,0.28,0.11,0.31
4.525879,12.26,-0.41,-2.71,0.85,0.46,-0.15
4.598877,10.39,0.31,-6.97,0.19,0.06,-0.13
4.671875,7.65,-1.56,-3.4,0.12,0.29,-0.13
4.745117,9.23,0.69,-4.03,0.33,-0.13,-0.26
4.818115,6.71,0.28,-2.59,-0.22,0.2,-0.05
4.8911133,8.34,-0.59,-2.92,-0.68,-0.06,0.24
4.9641113,10.57,-0.89,-1.99,-0.91,-0.08,0.21
5.0371094,9.85,-0.03,-1.18,-0.57,0.28,-0.12
5.1101074,10.59,-0.58,-0.82,-0.82,0.32,-0.01
5.1831055,13.39,-0.19,-4.24,-0.51,-0.06,-0.05
5.2561035,9.41,1.54,-5.51,-0.46,0.46,-0.12
5.3291016,8.01,0.63,-3.46,-0.49,-0.04,-0.07
5.4020996,7.85,-0.31,-2.57,-0.65,-0.16,0.16
5.4750977,7.17,-0.19,-1.84,-0.17,-0.1,0.05
5.5480957,8.79,1.52,-2.41,0.44,-0.16,-0.3
5.6210938,9.21,1.12,-1.66,0.32,-0.07,-0.03
5.694092,11.85,0.33,-0.72,0.3,-0.05,0.39
5.76709,13.32,-0.18,-1.5,1.1,0.71,0.07
5.840088,9.56,1.03,-8.29,0.72,0.31,0.07
5.913086,8.35,-2.12,-2.74,-0.01,0.23,0.02
5.986084,9.53,0.25,-3.71,0.07,-0.2,-0.17
6.059082,6.73,-0.01,-2.21,-0.47,0.04,-0.07
6.13208,8.52,-0.44,-2.82,-0.76,-0.25,0.27
6.205078,8.97,-0.44,-2.07,-0.88,-0.05,0.18
6.278076,10.23,0.23,-1.84,-0.59,0.04,-0.12
6.351074,11.13,0.17,-0.37,-1.16,0.32,-0.07
6.4240723,11.64,0.87,-4.45,-0.88,0.23,-0.41
6.4970703,10.66,2,-6.56,-1.65,0.06,0.1
6.5700684,8.45,-0.18,-3.65,-1.58,0,0.19
6.6430664,7.83,-0.45,-2.97,-1.13,-0.27,0.15
6.7160645,6.41,0.61,-2.61,-0.5,-0.23,0
6.7890625,9.02,1.7,-2.74,0.07,-0.36,-0.15
6.8620605,9.62,1.11,-1.88,-0.12,-0.24,0.15
6.9350586,9.95,0.4,-2.05,0.07,-0.19,0.35
7.0080566,12.98,-0.7,-1.46,0.55,0.48,0.34
7.0810547,10.83,1.97,-8.07,0.53,-0.07,0.2
7.1540527,8.66,0.68,-4.77,-0.28,0.49,0.03
7.227051,8.4,0.31,-3.9,-0.57,0.1,0.01
7.300049,6.68,0.13,-3.75,-1.08,-0.06,0.1
7.373047,8.9,-0.48,-4.15,-1.24,-0.23,0.32
7.446045,8.79,-0.65,-3.07,-1.24,0.13,0.41
7.519043,9.61,-0.12,-2.26,-0.79,0.13,0.3
7.592041,10.13,-0.44,-2.35,-0.74,0.12,0.04
7.665039,11.17,-1.1,-0.49,-0.72,0.68,0.03
7.738037,11.92,0.31,-6,-0.13,-0.09,-0.39
7.811035,8.19,1.49,-5.03,-0.55,0.55,-0.08
7.884033,9.26,0.37,-3.5,-0.47,-0.02,0.06
7.9570312,7.79,0.37,-3.01,-0.58,0.14,0.07
8.030029,7.05,0.63,-2.35,-0.09,0.01,-0.11
8.103027,9.58,1.47,-2.79,0.22,-0.35,-0.11
8.176025,9.26,1.06,-1.83,0.13,-0.08,0.07
8.249023,10.04,1.07,-1.92,0.25,-0.07,0.24
8.3220215,12.14,0.74,0.54,0.59,0.33,-0.02
8.39502,11.95,0.33,-6.66,1.06,0.07,-0.03
8.468018,9.04,-0.31,-5.98,-0.26,0.15,-0.01
8.541016,8.67,-1.29,-3.52,-0.41,0.08,0.06
8.614014,7.58,0.88,-3.92,-0.53,0.02,0.1
8.687012,9.11,0.1,-3.21,-1.03,0.19,0.4
8.76001,9.21,-0.46,-3.71,-1.3,-0.07,0.18
8.833008,7.77,-0.71,-2.75,-1.53,0.14,0.31
8.906006,8.77,-0.09,-1.31,-1.27,0.22,0.27
8.979004,10.53,-0.55,-1.65,-1.21,-0.06,-0.05
9.052002,12.24,-1.28,-2.41,-1.03,0.7,0.3
9.125,11.05,0.78,-6.51,-0.38,-0.08,-0.2
9.197998,8.33,1.83,-3.8,-0.35,0.28,-0.08
9.270996,8.83,0.22,-3.19,-0.64,-0.29,-0.01
9.343994,6.3,-0.16,-2.51,-0.83,-0.06,0.28
9.416992,9.15,0.37,-2.84,-0.34,-0.48,0.18
9.48999,9.26,0.89,-2.46,0.14,-0.47,-0.04
9.562988,10.07,0.35,-1.9,0.25,-0.1,0.26
9.635986,12.03,2.01,-2.01,0.62,0.45,0.08
9.708984,11.92,0.06,-6.44,0.64,-0.08,-0.29
9.781982,8.32,-1.71,-5.66,-0.21,0.53,0.21
9.85498,9.85,-0.91,-4.73,0.04,-0.11,-0.13
9.9279785,6.92,0.31,-3.64,-0.07,0.11,-0.31
10.000977,7.19,-0.31,-3.05,-0.57,0.27,0.19
10.073975,9.15,-1.11,-3.09,-0.9,-0.04,0.23
10.146973,9.54,-0.76,-2,-0.83,0.24,0.11
10.219971,9.9,0.28,-1.98,-0.71,0.16,-0.12
10.292969,11.58,-0.58,-0.18,-0.89,0.69,-0.05
10.365967,12.39,-0.15,-7.07,-0.62,-0.17,-0.14
10.438965,8.12,0.23,-5.26,-1.01,0.42,0.31
10.511963,8.77,-0.76,-2.88,-0.31,-0.25,0.13
10.584961,7.35,-0.29,-3.28,0.04,-0.23,0.05
10.657959,7.61,0.91,-2.79,0.53,-0.2,-0.11
10.730957,9.47,1.47,-2.78,0.7,-0.4,-0.32
10.803955,9.55,0.41,-1.43,0.37,0.09,0.09
10.876953,10.77,-0.15,-2.13,0.43,0.16,0.39
10.949951,12.85,-0.67,-2.07,1.3,0.75,-0.12
11.022949,10.65,0.62,-7.66,0.09,0.01,0.04
11.095947,8.9,-1.29,-4.3,-0.31,0.37,0.03
11.168945,7.81,0.33,-4.03,-0.29,-0.2,-0.37
11.241943,6.64,-0.22,-2.9,-0.65,-0.02,0.12
11.314941,8.71,-1.01,-2.92,-0.79,-0.21,0.11
11.387939,8.62,-0.76,-2.28,-0.78,-0.03,0.02
11.4609375,10.45,-1.14,-1.18,-0.52,0.08,0.01
11.533936,10.69,-1.47,-0.9,-0.22,0.31,-0.12
11.606934,11.13,-1.41,-2.38,0.57,0.73,-0.33
11.679932,10.71,0.97,-7.63,-0.13,-0.01,0.19
11.75293,10.7,-1.62,-3.63,0.35,0.16,-0.11
11.825928,7.75,-1.84,-3.31,0.75,0.19,0.07
11.898926,6.3,-0.58,-2.73,1.38,-0.14,-0.21
11.971924,8.49,0.51,-2.98,1.69,-0.35,-0.44
12.044922,8.2,-0.26,-1.88,1.54,-0.11,-0.17
12.11792,8.77,0,-1.48,1.21,-0.37,0.02
12.190918,10.75,1.01,-1.65,1.11,-0.39,-0.13
12.263916,12.43,0.95,-2.8,1.18,-0.02,-0.36
12.336914,12.19,-0.53,-7.81,0.37,-0.42,-0.4
12.409912,8.85,-3.16,-5.08,-0.26,0.05,0.2
12.48291,9.75,-1.19,-4.64,0.31,-0.23,-0.18
12.555908,6.21,0.09,-3.29,0.35,-0.05,-0.53
12.628906,7.01,-0.35,-3.13,-0.12,0.08,0.07
12.701904,8.94,-0.91,-2.57,-0.49,-0.05,0.21
12.774902,9.88,-1.01,-1.95,-0.33,0.4,0.13
12.8479,11.38,-1.06,-1.18,-0.22,0.41,-0.21
12.920898,12.86,-1.72,-4.08,0.36,0.75,-0.19
12.9938965,9.66,0.24,-8.07,-0.24,0.31,0.15
13.066895,8.7,-1.81,-3.36,0.54,0,0.03
13.139893,7.02,-1.5,-3.66,1.07,-0.07,0
13.212891,6.27,0.01,-3.2,1.39,-0.37,-0.33
13.285889,8.76,1.44,-3.18,1.81,-0.73,-0.66
13.358887,10.26,0.4,-2.58,1.65,0.01,-0.6
13.431885,10.58,1.03,-2.19,0.5,0.38,0.1
13.504883,13.36,-0.31,-1.1,0.69,0.77,-0.03
13.577881,10.17,-0.78,-7.61,0.19,0.03,0.27
13.650879,8.53,-2.8,-4.51,0.22,0.19,0.25
13.723877,8.68,-0.05,-4.09,0.84,-0.32,-0.59
13.796875,5.91,-0.01,-2.99,0.29,-0.07,-0.3
13.870117,8.82,-1.22,-2.77,-0.27,-0.13,0.33
13.943115,9.42,-1.63,-1.99,-0.27,0.03,0.07
14.016113,10.4,-0.6,-1.05,0.12,0.26,-0.34
14.089111,11.58,-1.41,-0.3,-0.09,0.79,-0.34
14.162109,12.32,-0.35,-7.33,-0.07,-0.12,0.01
14.235107,8.72,0.93,-5.24,-0.16,0.49,0.13
14.308105,8.71,-0.93,-3.28,0.15,-0.08,-0.01
14.3811035,6.34,-0.62,-2.71,-0.05,-0.03,0.22
14.454102,7.66,0.28,-2.91,0.43,-0.25,0.02
14.5271,9.49,0.86,-2.29,0.66,-0.24,-0.27
14.600098,10.49,-0.4,-0.93,0.64,0.07,0.03
14.673096,11.34,-0.51,-0.89,0.67,0.4,0.25
14.746094,12.53,-1.18,-5.11,1.47,-0.29,-0.3
14.819092,9.03,-0.69,-5.55,0.36,0.37,0
14.89209,9.29,-1.5,-4.35,0.41,-0.06,0.05
14.965088,7.4,-0.78,-3.14,0.68,-0.11,-0.54
15.038086,6.4,-0.72,-2.32,0.33,0.07,-0.09
15.111084,9.36,-1.16,-2.41,0.14,-0.22,-0.01
15.184082,9.74,-1.14,-1.46,0.07,0.11,-0.11
15.25708,10.2,-0.49,-1.37,0.12,0.16,-0.36
15.330078,11.41,-1.22,0.2,-0.07,0.75,-0.27
15.403076,11.79,-0.55,-6.52,0.03,-0.14,-0.08
15.476074,8.89,0.1,-4.55,-0.38,0.3,0.35
15.549072,8.68,-0.72,-3.56,0.28,-0.38,-0.05
15.62207,7.09,-0.81,-2.69,0.28,-0.25,0.05
15.695068,7.99,-0.08,-3.12,0.75,-0.5,-0.19
15.768066,9.13,0.8,-2.99,1,-0.31,-0.37
15.841064,9.92,-0.11,-1.56,0.89,0.02,-0.03
15.9140625,10.71,-0.16,-1.95,0.71,0.25,0.18
15.987061,12.57,-1.78,-2.47,1.35,0.34,-0.17
16.060059,10.34,-0.5,-7.16,0.6,0.06,-0.04
16.133057,8.58,-2.17,-4.14,0.57,0.08,-0.05
16.206055,8.91,-0.38,-3.77,0.78,-0.23,-0.48
16.279053,5.81,-0.11,-3.03,0.42,0.08,-0.31
16.35205,9.01,-1.5,-2.22,-0.02,-0.02,0.13
16.425049,9.54,-1.28,-2.11,-0.24,0.11,0.04
16.498047,10.6,-0.64,-0.76,-0.09,0.34,-0.22
16.571045,11.3,-0.82,0.41,-0.08,0.8,-0.34
16.644043,11.99,-0.3,-6.57,0.15,-0.12,-0.42
16.717041,9.12,0.67,-4.96,-0.89,0.59,0.21
16.79004,8.43,-1.47,-2.79,0,-0.15,0.02
16.863037,6.79,-0.73,-2.88,0.24,-0.06,0.06
16.936035,8.03,0.92,-2.58,0.88,-0.46,-0.21
17.009033,10.09,1.86,-2.56,0.99,-0.4,-0.55
17.082031,10.09,-0.23,-0.91,0.57,0.19,0.1
17.15503,11.43,-0.34,-0.65,0.67,0.39,0.27
17.228027,11.91,-1.57,-3.35,1.54,0.07,-0.05
17.301025,9.73,-0.22,-6.8,0.78,0.1,0.18
17.374023,8.41,-1.26,-3.8,0.79,-0.02,-0.08
17.447021,8.1,0.15,-3.51,0.73,-0.17,-0.36
17.52002,7.05,-0.27,-2.11,0.21,0.13,-0.05
17.593018,9.45,-1.09,-2.5,-0.18,-0.19,0.15
17.666016,9.7,-1.19,-1.22,-0.1,0.06,-0.04
17.739014,9.52,0.17,-1.08,0.18,0.21,-0.41
17.812012,11.92,-0.12,0.13,-0.12,0.53,-0.42
17.88501,12.25,0.5,-5.96,-0.12,0.01,-0.31
17.958008,8.3,-0.54,-3.88,-0.78,0.58,0.2
18.031006,9.19,-0.56,-3.19,-0.26,-0.22,0.15
18.104004,7.34,-0.11,-2.38,0.02,-0.11,-0.01
18.177002,7.56,0.69,-2.35,0.44,-0.27,-0.05
18.25,9.69,1.27,-2.16,0.47,-0.36,-0.12
18.322998,9.71,0.17,-1.05,0.36,0,0.1
18.395996,10.74,-0.23,-1.46,0.39,0.04,0.29
18.468994,12.61,-0.62,-1.03,1.07,0.42,-0.02
18.541992,10.19,-0.13,-6.94,0.5,-0.32,0.26
18.61499,8.57,-1.82,-4.05,0.36,0.09,0.25
18.687988,9.67,-0.34,-4,0.71,-0.24,-0.3
18.760986,5.33,-0.25,-2.87,0.09,0.04,-0.18
18.833984,8.31,-1.13,-3.04,-0.34,-0.51,0.27
18.906982,10.51,-1.43,-3.24,-0.56,-0.53,-0.01
18.97998,10.11,-0.18,-2.05,-0.4,-0.03,-0.19
19.052979,12.06,0.12,-2.4,-0.51,0.29,-0.3
19.125977,13.81,-0.61,-5.99,-1.04,-0.15,-0.12
19.198975,8.78,0.36,-7.22,-0.86,0.54,0.24
19.271973,8.33,0.52,-4.09,-0.13,0.09,0.04
19.34497,7.26,-0.03,-3.19,-0.03,0.13,-0.24
19.417969,5.58,0.69,-2.79,0.13,0.21,-0.12
19.490967,8.09,1.22,-2.96,0.12,-0.15,-0.02
19.563965,9.54,1.47,-2.78,-0.1,0.03,0.18
19.636963,9.08,0.55,-1.64,-0.23,0.31,0.37
19.70996,11.11,1.18,-1.54,-0.15,0.17,0.4
19.782959,13.29,0.26,-3.84,0.31,0.2,0.07
19.855957,9.45,-0.57,-5.61,-0.26,0.38,0.27
19.928955,8.77,-1.39,-4.26,-0.3,0.31,0.4
20.001953,8.42,0.07,-3.88,0.23,0.04,-0.32
20.074951,6.71,-0.17,-2.8,-0.04,0.15,-0.15
20.14795,8.02,-0.44,-3.07,-0.42,-0.29,0.05
20.220947,10.01,-0.93,-2.22,-0.74,-0.33,0.13
20.293945,10.47,0.5,-1.97,-0.77,0.12,-0.1
20.366943,10.77,-0.98,-0.69,-1.01,0.56,-0.15
20.439941,11.49,-0.37,-5.85,-1.02,-0.16,0.28
20.51294,9.48,2.12,-6.13,-1,0,0.05
20.585938,8.09,1.18,-4.37,-0.81,-0.03,0.23
20.658936,8.15,-0.18,-3.54,-1.17,-0.06,0.38
20.731934,7.77,-0.54,-2.59,-0.66,0.18,0.32
20.804932,8.58,-0.03,-2.43,-0.08,-0.04,-0.11
20.87793,9.89,-0.17,-1.44,0.15,-0.02,-0.04
20.950928,10.36,-0.8,-1.82,0.13,0.27,0.29
21.023926,12.03,-0.67,-3.28,0.69,0.18,0.32
21.096924,11.27,0.63,-8.37,0.3,-0.47,-0.46
21.169922,7.5,-2.41,-2.84,0.23,0.65,0.33
21.24292,9.64,-0.88,-4.05,0.5,0.01,0.05
21.315918,7.36,-0.98,-2.57,0.36,0.31,-0.04
21.388916,7.43,-1.64,-2.39,0.19,0.3,0.09
21.461914,8.51,-2.46,-1.88,0.15,-0.17,0
21.534912,9.84,-2.06,-1.99,0.41,-0.37,-0.25
21.60791,10.65,-1.79,-1.39,0.44,-0.03,-0.35
21.680908,10.69,-2.62,-0.5,0.53,0.44,-0.29
21.753906,11.64,-0.9,-6.17,0.33,-0.37,-0.05
21.826904,8.5,1.22,-5.32,0.47,-0.05,-0.07
21.899902,9.45,0,-3.92,0.66,-0.43,-0.23
21.9729,7.19,-0.49,-3.56,0.53,-0.16,-0.24
22.045898,7.82,-0.16,-3.11,0.83,-0.22,-0.15
22.118896,9.15,0.54,-3.16,0.87,-0.16,-0.27
22.191895,9.92,-0.22,-1.75,0.66,0.15,0.02
22.264893,10.04,-0.52,-1.9,0.62,0.4,0.23
22.33789,11.91,-0.52,-2.27,1.44,0.49,-0.33
22.410889,11.73,-1.41,-7.54,0.57,-0.38,-0.28
22.483887,7.68,-3.61,-4.6,0.27,0.28,0.06
22.556885,9.21,-1,-4.68,0.86,-0.49,-0.49
22.629883,6.86,-0.55,-3.05,0.65,-0.07,-0.51
22.70288,7.98,-1.62,-2.75,0.2,0.02,0.01
22.775879,8.76,-1.43,-2.38,0.17,-0.02,-0.2
22.848877,9.81,-0.17,-1.69,0.21,0.15,-0.37
22.921875,10.81,-0.82,-1.26,-0.02,0.48,-0.45
22.995117,12.4,-2.12,-4.89,0.28,0.05,-0.36
23.068115,10.09,-1.6,-5.5,0,0.59,0.25
23.141113,8.93,-3.03,-3.88,1.16,-0.14,-0.12
23.214111,7.83,-1.07,-4.41,1.52,-0.15,-0.2
23.28711,7.83,-0.05,-4.35,1.82,-0.24,-0.35
23.360107,8.87,0.36,-3.97,1.84,-0.18,-0.49
23.433105,9.31,-0.48,-2.36,1.64,0.32,-0.13
23.506104,9.45,-1.61,-1.27,1.38,0.39,0.22
23.579102,10.23,-0.21,-1.12,1.56,0.1,-0.1
23.6521,11.28,-2.03,-2.79,1.74,-0.1,-0.21
23.725098,9.72,-1.75,-6.34,0.66,-0.41,0.2
23.798096,9,-3.31,-3.6,1.15,-0.38,0
23.871094,7.99,-0.76,-3.92,1.36,-0.25,-0.45
23.944092,7.05,-1.33,-2.66,0.91,-0.09,-0.09
24.01709,9.39,-2.45,-2.69,0.55,-0.25,-0.02
24.090088,9.49,-1.86,-2.03,0.48,-0.07,-0.21
24.163086,10.29,-1.56,-1.54,0.44,0,-0.42
24.236084,10.82,-2.31,-0.18,0.21,0.46,-0.36
24.309082,10.86,-2.3,-2.39,0.59,0.6,-0.64
24.38208,12.01,-0.07,-7.01,-0.21,-0.17,-0.06
24.455078,7.08,-0.01,-4.85,0.25,0.11,-0.2
24.528076,7.89,0.21,-3.52,0.74,-0.16,-0.23
24.601074,7.46,-0.09,-2.59,0.68,-0.19,-0.22
24.674072,9.28,0.59,-3.05,0.84,-0.39,-0.12
24.74707,9.51,1.07,-2.26,0.8,0,-0.21
24.820068,9.22,0.42,-1.31,0.6,0.31,0.08
24.893066,10.45,0.05,-2.36,0.47,0.35,0.29
24.966064,12.68,1.09,-2.16,1.19,0.45,-0.38
25.039062,10.92,0.5,-5.73,0.67,0.13,-0.37
25.11206,8.2,-1.94,-4.2,-0.46,0.44,0.24
25.185059,9.96,-0.35,-3.69,0,-0.1,-0.1
25.258057,6.62,0.25,-2.42,-0.2,0.05,-0.33
25.331055,7.47,-0.25,-2.6,-0.74,0.1,0.19
25.404053,9.84,-0.77,-2.29,-1.12,-0.16,0.23
25.47705,9.5,-0.24,-1.07,-1.04,0.13,0.15
25.550049,10.65,0.01,-1.37,-0.89,0.04,-0.03
25.623047,11.81,-1.57,-0.08,-1.01,0.61,0.13
25.696045,11.11,0.78,-6.45,-0.71,-0.05,0.08
25.769043,8.75,1.17,-4.75,-0.84,0.21,0.3
25.842041,9.3,-0.57,-3.36,-0.59,-0.22,0.01
25.91504,6.85,-1.19,-2.24,-0.36,-0.16,0.14
25.988037,7.92,0.31,-2.78,0.33,-0.37,-0.06
26.061035,9.01,0.86,-2.78,0.48,-0.27,-0.13
26.134033,9.58,0.1,-1.6,0.5,-0.06,0.14
26.207031,10.23,-0.31,-1.89,0.44,0,0.33
26.28003,11.9,-0.69,-0.35,0.87,0.31,0.12
26.353027,12.21,0.25,-6.58,0.9,-0.25,-0.12
26.426025,9.08,-0.83,-4.95,-0.19,0.64,0.12
26.499023,9.01,-0.7,-4.26,-0.14,0,-0.02
26.572021,7.73,0.08,-3.57,-0.28,0.05,-0.31
26.64502,7.48,-1.2,-2.43,-0.86,0.22,0.23
26.718018,8.34,-1.6,-3.09,-1.11,-0.14,0.21
26.791016,9.5,-1.25,-1.9,-0.97,-0.13,0.09
26.864014,10.11,-0.63,-1.61,-0.61,0.02,-0.07
26.937012,10.72,-1.17,-1.1,-0.52,0.41,-0.19
27.01001,12.73,-2.13,-5.44,-0.33,-0.01,0
27.083008,9.23,-0.65,-5.81,0.18,0.44,0
27.156006,8.96,-1.5,-4.1,0.49,-0.34,-0.09
27.229004,7.84,-1.33,-3.99,0.53,-0.11,0.07
27.302002,7.02,-0.54,-3.26,1.09,-0.25,-0.18
27.375,8.75,0.65,-4.11,1.18,-0.42,-0.32
27.447998,9.46,-0.84,-2.29,0.94,-0.07,-0.11
27.520996,9.93,-1.53,-2.12,1.15,0.08,-0.02
27.593994,10.25,0.1,-2.69,1.38,0.25,-0.21
27.666992,11.68,-1.85,-4.87,1.57,-0.03,-0.37
27.73999,9.31,-1.82,-6.44,0.43,0,-0.2
27.812988,8.49,-2.86,-3.24,0.3,0.07,0.15
27.885986,9.21,-0.76,-4.6,0.26,-0.07,-0.15
27.958984,7.63,-1.48,-3.1,-0.33,0.31,0.1
28.031982,8.64,-1.48,-3.76,-0.97,-0.01,0.24
28.10498,8.96,-1,-3.4,-1.61,0.12,0.27
28.177979,8.95,0.04,-3.88,-1.99,0.16,-0.13
28.250977,8.19,-0.84,-5.3,-3,0.55,0.18
28.323975,10.98,-0.66,-8.83,-3.48,-0.26,0.42
28.396973,10.9,2.12,-6.86,-2.81,-0.28,0.42
28.46997,6.26,1.41,-3.37,-1.92,-0.01,0.07
28.542969,7.77,2.3,-4.14,-1.9,-0.39,0.3
28.615967,10.15,1.37,-5.17,-2.28,-0.5,0.84
28.688965,8.94,1.07,-4.08,-1.91,0.16,0.94
28.761963,8.63,1.43,-3.13,-1.08,0.06,0.67
28.83496,8.96,2.71,-3.57,-0.81,-0.02,0.55
28.907959,9.04,2.96,-3.22,-0.71,0.13,0.59
28.980957,10.49,2.71,-5.59,-0.34,0.05,0.23
29.053955,10.96,0.44,-4.96,-0.77,0.29,0.06
29.126953,9.29,-1.54,-4.53,-1.08,0.45,0.34
29.199951,10.04,-0.94,-6.01,-1.24,0.13,0.25
29.27295,7.32,-2.03,-3.71,-2,0.85,1.04
29.345947,7.55,-1.2,-3.64,-1.77,0.21,0.89
29.418945,8.85,0.23,-3.4,-1.37,-0.29,0.11
29.491943,9.05,0.5,-3.24,-1.63,-0.29,0.14
29.564941,9.55,0.01,-2.67,-1.87,0.42,0.48
29.63794,10.25,-0.95,-1.67,-1.76,0.48,0.32
29.710938,11.35,-0.48,-3.94,-1.15,0.47,-0.03
29.783936,10.4,1.67,-7.81,-1.22,-0.38,-0.03
29.856934,9.73,0.12,-4.87,-0.94,0.16,0.08
29.929932,7.37,-0.63,-3.11,-0.91,0.2,0.34
30.00293,5.97,0.67,-2.76,-0.33,0.08,0.12
30.075928,9.3,1.94,-3.93,0.26,-0.45,-0.27
30.148926,8.98,1.34,-2.67,0.06,0.15,-0.15
30.221924,9.77,0.18,-2.31,0.14,0.03,0.23
30.294922,11.5,0.59,-1.63,0.32,0.08,0.35
30.36792,12.88,-0.36,-3.48,1.32,0.52,-0.08
30.440918,9.89,-0.69,-7.49,0.92,0.05,-0.21
30.513916,7.76,-1.82,-3.85,0.49,0.47,0.33
30.586914,8.38,0.29,-4.23,0.43,-0.17,-0.11
30.659912,6.72,-0.22,-2.88,0.18,0.09,-0.23
30.73291,8.95,-1.33,-3.02,-0.23,-0.18,0.13
30.805908,9.34,-1.18,-2.14,-0.44,-0.02,-0.03
30.878906,9.93,-0.12,-1.96,-0.32,0.06,-0.19
30.951904,10.72,-0.76,-0.87,-0.57,0.35,-0.25
31.024902,11.68,-1.89,-1.9,-0.21,0.62,-0.22
31.0979,11.34,-0.39,-6.36,-0.28,0.03,0.06
31.170898,7.48,-0.75,-4.2,0,0.42,0.25
31.243896,8.97,-0.54,-3.86,0.8,-0.21,-0.13
31.316895,7.03,-0.25,-2.75,0.98,-0.09,-0.35
31.389893,8.37,1.12,-3.41,1.22,-0.28,-0.26
31.46289,9.92,1.03,-2.06,1.24,-0.22,-0.52
31.535889,8.98,0.28,-1.58,0.73,0.1,0.12
31.608887,10.83,0.4,-1.64,0.52,0.09,0.39
31.681885,12.8,-0.56,-1.82,1.09,0.21,-0.08
31.754883,10.92,-0.61,-6.55,0.72,-0.14,0.11
31.82788,7.94,-2.39,-4.45,0.47,0.33,0.17
31.900879,9.43,0.07,-4.19,0.79,-0.12,-0.42
31.973877,6.37,0.29,-2.65,0.32,0.25,-0.35
32.046875,7.71,-1.04,-2.4,-0.28,0.13,0.34
32.120117,10.26,-2,-2.65,-0.55,-0.23,0.16
32.193115,8.85,-1.08,-1.58,-0.5,0.19,0.04
32.266113,9.81,-0.53,-1.6,-0.27,0.08,-0.23
32.33911,11.06,-1.01,-0.12,-0.5,0.51,-0.18
32.41211,11.64,-1.11,-4.49,0.03,0.12,-0.41
32.485107,9.58,0.27,-5.85,-0.95,0.3,0.43
32.558105,9.17,-0.03,-3.45,-0.13,-0.33,0.14
32.631104,8.44,-0.19,-3.71,0.16,-0.24,-0.06
32.7041,6.46,0.37,-2.39,0.61,0,-0.01
32.7771,9.32,1.73,-3.54,0.87,-0.44,-0.35
32.850098,10.11,0.59,-1.82,0.52,-0.18,-0.18
32.923096,9.48,-0.23,-1.86,0.13,0.23,0.43
32.996094,10.97,-0.2,-1.37,0.18,0.19,0.46
33.06909,10.86,0.56,-0.37,0.55,0.67,0.16
33.14209,11.91,1.78,-8.07,0.25,-0.24,-0.06
33.215088,8.88,-0.81,-3.79,-1.03,0.83,-0.06
33.288086,9,0.12,-5.39,-1.32,0.06,-0.05
33.361084,6.63,-0.1,-3.99,-1.94,0.29,0.11
33.434082,8.08,-0.56,-3.81,-2.22,0.03,0.7
33.50708,8.79,-0.92,-3.38,-1.99,-0.25,0.08
33.58008,9.75,-1.79,-2.13,-1.85,-0.15,0.25
33.653076,9.89,-0.93,-2.2,-1.52,0.05,0.15
33.726074,9.72,-1.12,-1.99,-1.33,0.53,0.15
33.799072,12.61,1,-6.86,-0.91,-0.3,-0.1
33.87207,9.91,1.96,-6.03,-1.14,-0.15,-0.04
33.94507,8.05,1.02,-3.27,-0.67,0.03,-0.06
34.018066,6.9,0.96,-2.78,-0.96,-0.03,0.18
34.091064,8.08,1.3,-3.32,-0.78,-0.23,0.24
34.164062,10.3,1.67,-3.39,-0.4,-0.37,0.05
34.23706,8.81,1.09,-2.17,-0.28,0.16,0.18
34.31006,10.08,0.44,-1.87,-0.21,0.19,0.47
34.383057,11.75,0.92,-1.43,0.34,0.55,0.29
34.456055,11.38,1.79,-6.19,0.8,0.03,-0.29
34.529053,8.98,-0.31,-5.61,-0.38,0.54,0.16
34.60205,9.24,-1.59,-3.9,-0.52,0.39,0.52
34.67505,7.77,-0.5,-3.66,-0.16,-0.03,-0.02
34.748047,7.3,-0.33,-2.67,-0.3,0.16,0.23
34.821045,9,-1.26,-2.6,-0.52,-0.19,0.26
34.894043,9.34,-1.43,-1.84,-0.54,-0.02,0.18
34.96704,9.64,-0.56,-1.6,-0.23,-0.08,-0.17
35.04004,10.99,-1.03,-0.78,-0.12,0.27,-0.28
35.113037,12.3,-1.5,-6.35,0.08,-0.22,-0.28
35.186035,9.15,-1.04,-5.98,-0.09,0.3,0.2
35.259033,8.22,-1.38,-3.75,0.52,-0.07,-0.02
35.33203,8.05,-0.73,-4.22,0.76,-0.12,-0.01
35.40503,7.46,-0.61,-3.14,0.94,-0.12,-0.24
35.478027,8.11,0.13,-4.17,0.93,-0.35,-0.52
35.551025,9.8,-0.31,-2.57,0.53,0.13,-0.09
35.624023,10.81,-0.71,-2.13,0.75,0.11,0.05
35.69702,11.23,-0.37,-0.5,1.27,0.4,-0.28
35.77002,11.47,-0.37,-6.62,1.24,-0.12,-0.35
35.843018,8.63,-3.07,-3.77,0.07,0.74,0.01
35.916016,9.81,-2.33,-3.77,0.62,-0.16,-0.16
35.989014,6.75,0.92,-3.09,0.69,0.04,-0.77
36.06201,6.89,0.05,-2.45,-0.12,0.13,0.11
36.13501,9.64,-1.73,-2.59,-0.74,-0.11,0.24
36.208008,9.01,-1.92,-1.05,-0.38,0.36,0.18
36.281006,9.83,-0.07,-1.46,-0.07,0.1,-0.29
36.354004,11.38,-1.03,0.32,-0.58,0.53,-0.03
36.427002,12.52,-0.76,-5.28,-0.19,-0.17,-0.23
36.5,9.59,0.18,-5.03,-0.67,0.42,0.29
36.572998,8.59,-0.45,-3.37,-0.29,-0.21,0.04
36.645996,7.58,-0.62,-2.76,-0.26,-0.16,0.12
36.718994,7.62,0.18,-2.38,0.22,-0.22,-0.01
36.791992,9.17,0.8,-2.73,0.3,-0.23,-0.07
36.86499,9.7,-0.26,-1.36,0.22,0.03,0.13
36.93799,9.97,-1.14,-1.68,0.25,0.11,0.28
37.010986,11.72,-1.23,0.12,0.95,0.32,-0.01
37.083984,11.66,-0.7,-6.03,1.19,-0.31,-0.41
37.156982,9.03,-1.4,-4.92,0.43,0.19,-0.15
37.22998,8.99,-1.02,-4.03,0.49,-0.11,-0.18
37.30298,8.29,-0.06,-3.62,0.32,-0.11,-0.3
37.375977,7.57,-1.11,-2.61,-0.07,0.23,0.09
37.448975,8.14,-1.43,-2.34,-0.23,-0.12,0.06
37.521973,9.77,-0.7,-1.51,-0.23,-0.11,-0.05
37.59497,10.45,-0.62,-1.35,-0.25,0.14,-0.28
37.66797,11.11,-1.95,-0.43,-0.24,0.65,-0.11
37.740967,12.85,-0.57,-7.19,0.16,-0.37,-0.14
37.813965,8.28,-0.03,-4.84,-0.12,0.52,0.21
37.886963,8.11,0.03,-3.79,0.39,-0.26,-0.11
37.95996,7.36,-0.63,-2.56,0.19,-0.17,0.01
38.03296,8.28,0.48,-3.22,0.64,-0.41,-0.2
38.105957,8.96,0.9,-2.99,0.71,-0.31,-0.32
38.178955,9.87,-0.28,-1.8,0.58,-0.01,0.01
38.251953,10.54,-0.35,-2.36,0.54,0.14,0.2
38.32495,12.09,-1.78,-1.05,1.38,0.45,-0.11
38.39795,10.36,-0.75,-7.16,0.85,-0.3,-0.22
38.470947,7.8,-1.99,-4.13,0.34,0.51,0.17
38.543945,9.36,-1.33,-4.12,0.72,-0.26,-0.4
38.616943,6.88,-0.7,-2.6,0.48,0.16,-0.37
38.68994,8.43,-1.61,-2.22,0.24,-0.08,-0.08
38.76294,8.53,-1.44,-2.22,0.2,0.02,-0.24
38.835938,8.86,-0.58,-1.78,0.18,-0.03,-0.35
38.908936,9.44,-0.67,-1.47,-0.18,0.2,-0.16
38.981934,10.21,-1.25,-0.92,-0.19,0.74,0.04
39.05493,13.49,-0.13,-8.04,-0.16,-0.45,0.06
39.12793,10.36,0.12,-3.54,0.2,0.15,-0.03
39.200928,8.86,-0.22,-3.63,0.42,-0.23,-0.13
39.273926,7.1,-0.29,-2.53,0.68,0,0.03
39.346924,8,0.75,-2.92,0.98,-0.11,-0.12
39.41992,8.7,0.42,-1.18,0.78,0.18,0
39.49292,10.24,0.02,-1.69,0.64,0.09,0.07
39.565918,12.36,-1.46,-0.61,0.68,0.43,0.13
39.638916,11.32,0.78,-8.16,0.66,-0.36,-0.06
39.711914,9.1,-1.21,-3.37,-0.15,0.33,0.03
39.784912,9.66,0.56,-4.37,0.18,-0.31,-0.44
39.85791,7.02,0.2,-3.56,-0.65,0.16,0.14
39.93091,8.45,-0.97,-2.8,-0.75,0,0.28
40.003906,8.88,-0.36,-1.77,-0.75,0.21,0.18
40.076904,9.17,0.2,-1.35,-0.65,0.35,-0.06
40.149902,10.77,-0.37,-1.03,-1,0.59,0.15
40.2229,12.6,0.16,-6.04,-0.57,-0.09,-0.04
40.2959,9.73,1.33,-4.98,-1.02,0.38,0.3
40.368896,8.7,-0.44,-3.3,-0.68,-0.22,-0.02
40.441895,6.75,-0.5,-2.44,-0.68,-0.2,0.15
40.514893,8.49,0.37,-2.67,-0.15,-0.36,0.02
40.58789,9.34,0.9,-2.49,0.04,-0.12,-0.04
40.66089,9.55,-0.18,-1.21,-0.08,0.06,0.2
40.733887,11.02,-0.43,-1.66,0.02,0.23,0.35
40.806885,12.91,-0.25,-5.68,0.69,-0.23,-0.22
40.879883,8.39,-0.4,-4.96,-0.04,0.45,-0.21
40.95288,10.19,-0.64,-4.77,0.03,-0.11,-0.08
41.02588,7.62,-0.42,-3.84,-0.22,0.03,-0.21
41.098877,8.33,-1.09,-4.47,-0.57,-0.29,0.25
41.171875,10.73,-0.55,-3.84,-0.74,-0.23,-0.15
41.245117,7.18,-0.42,-2.08,-0.85,0.24,-0.02
41.318115,8.35,-0.28,-2.62,-0.9,0.19,0.13
41.391113,9.24,-0.35,-1.47,-0.66,0.26,-0.01
41.46411,10.64,-2.06,-3.7,-0.93,0.5,0.37
41.53711,9.64,0.61,-6.82,-0.79,0.09,0.44
41.610107,11.78,0.02,-3.11,-0.24,-0.18,0.07
41.683105,8.61,-0.58,-3.35,-0.3,0.08,0.37
41.756104,6.83,-0.15,-2.07,0.52,-0.04,-0.09
41.8291,8.52,1.03,-2.75,0.67,-0.35,-0.3
41.9021,9.02,-0.38,-2.09,0.54,0.07,-0.01
41.975098,9.81,-1.07,-2.12,0.61,-0.06,0.05
42.048096,10.94,-0.78,-1.65,0.83,-0.18,-0.07
42.121094,13.8,-1.03,-2.26,1,0.1,0.02
42.19409,11.58,0.64,-7.35,0.6,0,-0.18
42.26709,6.79,-0.91,-4.62,-0.07,0.46,0.03
42.340088,8.39,0.16,-4.22,0.01,0.03,-0.05
42.413086,6.42,-0.5,-2.84,-0.59,0.35,0
42.486084,7.93,-0.97,-2.91,-0.73,-0.14,0.12
42.559082,9.85,-1.1,-1.92,-0.73,-0.12,-0.13
42.63208,9.25,-0.99,-0.92,-0.48,0.3,-0.22
42.70508,11.49,-1.05,-1.43,-0.42,0.73,-0.12
42.778076,12.32,-0.12,-6.75,0.02,0,-0.23
42.851074,9.65,1,-3.94,-0.22,0.47,0.08
42.924072,8.76,-0.14,-3.5,-0.05,-0.13,-0.06
42.99707,6.46,-0.29,-2.07,-0.24,-0.03,0.15
43.07007,7.73,0.67,-2.6,0.26,-0.32,-0.06
43.143066,9.54,0.97,-2.36,0.27,-0.26,-0.01
43.216064,10.19,-0.59,-1.5,0.24,-0.06,0.15
43.289062,11.83,-0.47,-0.68,0.49,0.29,0.11
43.36206,11.75,-1.07,-5.53,1.02,-0.04,-0.2
43.43506,9.85,-1.01,-6.13,0.31,0.28,-0.13
43.508057,9.2,-0.63,-4.22,0.52,0.02,-0.31
43.581055,6.94,0.1,-2.99,0.23,0.12,-0.32
43.654053,7.07,-1.06,-2.47,-0.1,0.13,0.21
43.72705,9.09,-1.38,-2.43,-0.07,-0.22,-0.09
43.80005,10.12,-0.84,-1.18,0.08,0.04,-0.26
43.873047,11.13,-0.16,-0.99,0.02,0.3,-0.44
43.946045,11.95,-1.7,-3.16,-0.07,0.46,-0.05
44.019043,11.53,-0.24,-5.77,-0.03,0.52,0.28
44.09204,7.43,0.67,-3.97,0.51,0.12,-0.28
44.16504,9.32,0.44,-3.48,0.31,-0.1,-0.02
44.238037,7.23,-0.61,-2.28,0.37,0.06,-0.01
44.311035,8.34,0.46,-2.85,0.76,-0.24,-0.11
44.384033,8.89,0.14,-1.94,0.74,-0.19,-0.05
44.45703,9.66,-0.42,-1.67,0.78,-0.13,0.16
44.53003,10.81,0.9,-1.55,1.01,-0.12,-0.07
44.603027,11.72,-0.13,-0.77,1.11,0.26,-0.13
44.676025,11.53,-0.73,-6.94,0.69,-0.3,-0.09
44.749023,7.5,-3.08,-3.33,0.34,0.34,0.08
44.82202,9.87,-0.42,-4.05,0.86,-0.23,-0.15
44.89502,7.58,0.02,-2.73,0.48,0.13,-0.28
44.968018,7.82,-1.61,-1.86,-0.01,0.12,0.23
45.041016,9.22,-1.53,-2.24,0,-0.27,-0.09
45.114014,9.18,-0.42,-1.26,0.21,0.06,-0.29
45.18701,10.6,0.25,-1.01,-0.09,0.08,-0.43
45.26001,11.47,-1.48,-0.25,-0.26,0.64,-0.17
45.333008,11.76,-0.76,-5.92,-0.21,-0.13,0.22
45.406006,8.99,0.48,-4.35,-0.03,0.37,0.12
45.479004,9.45,-0.05,-3.53,0.25,-0.16,-0.11
45.552002,6.78,-0.65,-2.57,0.09,0.07,0.08
45.625,8.03,0.44,-2.61,0.58,-0.38,-0.1
45.697998,9.09,1.2,-2.69,0.45,-0.4,-0.15
45.770996,9.55,-0.01,-1.27,0.4,-0.09,0.1
45.843994,10.55,0.12,-1.66,0.6,-0.06,0.14
45.916992,12.45,-0.22,-1.54,1.09,0.25,-0.11
45.98999,10.9,-0.63,-7.07,0.75,-0.07,0.07
46.06299,8.31,-2.2,-4.6,0.3,0.17,-0.11
46.135986,9.67,-1.03,-3.65,0.52,-0.12,-0.18
46.208984,7.05,-0.22,-2.91,0.24,0.34,-0.13
46.281982,7.79,-0.97,-2.69,-0.14,-0.02,0.05
46.35498,9.21,-1.48,-2.19,-0.44,-0.16,0
46.42798,10.1,-0.69,-1.42,-0.25,0.13,-0.27
46.500977,10.38,-0.29,-0.9,-0.34,0.48,-0.39
46.573975,12.76,-0.8,-4.75,-0.44,0.11,-0.13
46.646973,10.05,0.16,-5.36,-0.59,0.49,0.2
46.71997,8.23,1.03,-3.77,-0.21,-0.07,-0.17
46.79297,8.48,0.44,-3.2,-0.42,-0.12,0.03
46.865967,6.86,0.12,-1.99,-0.22,-0.16,0.06
46.938965,9.13,1.5,-3.05,0.12,-0.33,-0.02
47.011963,9.07,0.97,-1.82,-0.05,-0.05,0.15
47.08496,10.13,0.44,-1.77,-0.01,0.03,0.31
47.15796,11.28,0.35,-0.75,0.19,0.38,0.34
47.230957,11.62,0.77,-5.64,0.37,0.04,0.14
47.303955,9.38,-0.55,-4.32,-0.66,0.51,0.27
47.376953,9.65,-0.27,-4.35,-0.37,0.02,0
47.44995,8.64,0.41,-3.64,-0.66,0.15,-0.24
47.52295,7.25,-0.75,-2.92,-1.24,0.35,0.38
47.595947,8.53,-1.11,-3.05,-1.29,-0.21,0.23
47.668945,9.83,-0.46,-2.25,-1.11,-0.15,0.11
47.741943,10.01,0.14,-1.68,-0.99,0.13,0.01
47.81494,11.09,-0.29,-0.97,-0.98,0.5,-0.09
47.88794,12.13,-0.45,-5.03,-0.95,-0.2,-0.08
47.960938,9.26,0.65,-5.03,-1.09,0.43,0.41
48.033936,7.63,0.76,-3.88,-0.6,-0.17,0.16
48.106934,8.41,-0.54,-2.94,-0.62,-0.3,0.28
48.17993,7.47,-0.26,-2.45,-0.16,-0.39,-0.11
48.25293,9.31,0.99,-3.56,0.22,-0.46,-0.31
48.325928,8.75,0.84,-2.35,-0.14,0.21,0.14
48.398926,9.49,-0.17,-1.79,-0.27,0.36,0.57
48.471924,11.21,0.12,-2.49,0.07,0.32,0.52
48.54492,12.91,0.76,-3.76,0.71,0.32,-0.14
48.61792,9.94,-0.74,-4.37,-0.08,0.54,0.04
48.690918,7.97,-0.96,-4.81,-0.4,0.36,0.23
48.763916,9.61,-0.18,-4,-0.3,-0.37,-0.37
48.836914,7.03,-0.24,-3.04,-0.91,0.11,-0.02
48.909912,7.81,-1.44,-3.23,-1.16,-0.1,0.26
48.98291,9.31,-1.68,-2.35,-1.18,0.08,0.39
49.05591,9.62,-0.75,-1.54,-0.56,0.23,-0.07
49.128906,10.45,-0.75,-0.99,-0.6,0.32,-0.19
49.201904,11.64,-1.09,0.18,-0.14,0.99,-0.49
49.274902,10.78,0.13,-8.94,-0.57,-0.11,-0.1
49.3479,9.45,-0.54,-3.87,-0.77,0.19,0.03
49.4209,9.51,-2.94,-3.01,0.05,-0.03,0.23
49.493896,6.07,-1.27,-2.67,0.99,-0.08,-0.29
49.566895,7.9,1.48,-3.2,1.57,-0.53,-0.54
49.639893,9.81,1.36,-1.93,1.39,-0.42,-0.52
49.71289,10.3,-0.23,-1.63,0.98,0.19,0.07
49.78589,12.23,-0.64,0.44,0.92,0.36,0.19
49.858887,12.89,0.2,-6.13,0.97,-0.22,0.13
49.931885,8.15,-0.9,-4.38,-0.05,0.73,0.11
50.004883,9.11,-0.12,-4.07,0.4,-0.2,-0.14
50.07788,8.26,0.65,-3.6,0.04,-0.07,-0.53
50.15088,7.19,-0.5,-2.58,-0.68,0.39,0.24
50.223877,8.3,-1.12,-2.77,-0.98,-0.03,0.22
50.296875,9.72,-0.33,-1.62,-0.8,0.09,0.05
50.370117,10.15,0.42,-1.67,-0.78,0.15,-0.21
50.443115,10.9,-1.65,0.22,-1.37,0.63,0.22
50.516113,12.67,-0.1,-5.22,-0.59,-0.26,-0.25
50.58911,9.61,1.75,-4.98,-0.87,0.24,-0.05
50.66211,8.58,1.44,-3.67,-0.48,-0.21,-0.19
50.735107,7.53,0.27,-2.79,-0.77,-0.06,-0.01
50.808105,6.6,0.57,-2.23,-0.36,-0.18,0.03
50.881104,9.84,2.25,-3.14,0,-0.59,-0.11
50.9541,9.4,1.5,-1.69,-0.14,-0.15,0.08
51.0271,9.99,0.35,-1.74,-0.12,0.06,0.54
51.100098,12.47,-0.39,-0.86,0.39,0.34,0.49
51.173096,11.62,1.28,-7.39,0.56,-0.13,0.25
51.246094,7.79,0.55,-4.41,-0.23,0.55,0.1
51.31909,10.33,0.1,-4.45,-0.38,0.02,-0.02
51.39209,6.82,0.56,-3.47,-0.73,0.3,-0.11
51.465088,7.92,-0.11,-2.99,-1,0.3,0.21
51.538086,9.02,-1.03,-3.14,-1.5,0.06,0.38
51.611084,9.36,-1.12,-1.6,-1.35,0.2,0.36
51.684082,9.75,0.31,-1.37,-0.71,0.16,-0.1
51.75708,11.46,-0.05,0.2,-1.03,0.36,-0.14
51.83008,12.74,-0.25,-5.31,-0.74,-0.11,-0.22
51.903076,8.71,0.65,-5.5,-1.21,0.48,0.05
51.976074,8.68,-0.25,-3.73,-0.94,-0.19,0.09
52.049072,8.13,-0.99,-3.24,-0.72,-0.03,0.06
52.12207,6.54,-0.1,-2.48,-0.17,-0.1,0
52.19507,9.48,1.44,-2.96,0.47,-0.5,-0.34
52.268066,9.49,0.07,-1.32,0.44,0.02,-0.11
52.341064,9.5,-0.74,-1.84,0.46,0.32,0.48
52.414062,12.22,0.23,0.01,1,0.25,0.24
52.48706,11.42,0.7,-5.74,0.94,0.11,-0.06
52.56006,9.28,0.95,-5.23,-0.29,0.64,0.24
52.633057,9.92,-0.11,-3.5,-0.42,0.17,-0.18
52.706055,7.53,0.34,-2.86,-0.76,0.33,-0.15
52.779053,7.64,-0.25,-3.05,-1.22,0.22,0.19
52.85205,8.94,-1.12,-2.85,-1.52,-0.02,0.26
52.92505,9.75,-1.46,-1.43,-1.29,0.02,0.26
52.998047,9.55,-0.07,-0.98,-0.68,0.11,-0.05
53.071045,10.45,-0.37,-0.2,-0.57,0.23,-0.31
53.144043,11.59,-1.03,-2.04,-0.19,0.36,-0.39
53.21704,10.3,0.74,-5.95,-0.62,-0.1,-0.21
53.29004,9.66,-0.14,-2.97,-0.35,0,-0.06
53.363037,8.84,-0.84,-2.88,-0.19,0.18,0.07
53.436035,6.58,-0.5,-1.58,0.26,0.05,0.02
53.509033,8.96,1.41,-2.52,0.87,-0.44,-0.28
53.58203,9.18,1.03,-1.32,0.68,-0.14,-0.1
53.65503,10.02,0.01,-1.44,0.52,0.03,0.27
53.728027,11.65,0.12,-0.2,0.6,0.19,0.25
53.801025,12.33,0.27,-4.54,0.88,-0.13,0
53.874023,9.11,-0.48,-4.45,-0.31,0.52,0.32
53.94702,9.42,-0.08,-4.03,-0.1,0.16,0.1
54.02002,8.16,0.86,-3.55,-0.53,0.14,-0.17
54.093018,7.35,-0.67,-2.69,-1.33,0.28,0.3
54.166016,9.34,-1.52,-2.97,-1.64,-0.16,0.29
54.239014,9.49,-0.72,-1.77,-1.48,0.06,0.11
54.31201,9.09,0.35,-1.18,-1.34,0.17,-0.01
54.38501,10.06,-0.48,-0.97,-1.58,0.39,0
54.458008,11.04,-0.87,-1.71,-0.98,0.7,-0.26
54.531006,10.9,1.62,-6.88,-1.15,-0.25,-0.32
54.604004,9.39,0.3,-3.09,-1.05,-0.05,-0.16
54.677002,9.56,-0.53,-3.26,-1.13,-0.02,0.16
54.75,6.52,-0.61,-1.48,-0.37,-0.04,-0.05
54.822998,8.44,1.82,-2.19,0.33,-0.33,-0.2
54.895996,8.83,1.71,-1.63,0,-0.07,0.07
54.968994,9.99,0.22,-1.2,-0.09,0.05,0.38
55.041992,11.98,0.03,-0.29,0.32,0.12,0.29
55.11499,12.31,0.68,-5.56,0.82,-0.25,-0.19
55.18799,8.37,-0.88,-4.01,-0.3,0.51,0.16
55.260986,10.03,-0.1,-4.53,0.08,0,0.03
55.333984,8.3,0.05,-2.84,0.02,0.02,-0.36
55.406982,7.2,-0.2,-2.49,-0.5,0.32,0.23
55.47998,8.61,-0.69,-2.23,-0.81,-0.09,0.18
55.55298,10.01,-0.45,-1.48,-0.73,0.06,0.07
55.625977,10.33,-0.16,-0.86,-0.61,0.26,-0.17
55.698975,11.09,-1.28,1.01,-0.72,0.72,-0.06
55.771973,12.11,-0.53,-5.58,-0.34,-0.23,-0.22
55.84497,9.32,1.02,-4.86,-0.75,0.46,0.11
55.91797,8.69,0.34,-3.3,-0.18,-0.23,-0.13
55.990967,8.19,0.38,-2.82,-0.18,-0.24,-0.1
56.063965,7.78,0.37,-2.22,0.17,-0.44,-0.19
56.136963,8.34,1.1,-2.16,0.23,-0.15,-0.02
56.20996,8.53,0.71,-1,0.42,0.07,0.02
56.28296,11.07,0.93,-1.97,0.45,-0.08,0.18
56.355957,12.76,-0.91,-0.76,0.76,0.56,0.09
56.428955,10.36,-0.12,-7.58,0.73,0.02,0.12
56.501953,8.91,-1.38,-3.08,0.29,0.28,0.15
56.57495,9.52,0.56,-4.23,0.38,-0.11,-0.19
56.64795,6.79,-0.1,-2.47,-0.24,0.09,-0.08
56.720947,8.26,-1.17,-2.38,-0.56,-0.05,0.17
56.793945,9.22,-1.07,-1.84,-0.65,-0.12,0.08
56.866943,9.28,-0.52,-0.93,-0.43,0.06,-0.1
56.93994,10.87,-0.7,-0.49,-0.59,0.25,-0.17
57.01294,12.22,-0.15,-5.09,0.19,0.15,-0.53
57.085938,10.26,0.97,-5.47,-0.55,0.19,-0.09
57.158936,9.02,-0.1,-3.85,-0.3,-0.24,-0.11
57.231934,8.75,-0.16,-3.38,-0.22,-0.11,-0.01
57.30493,7.23,-0.09,-2.25,0.13,-0.05,0
57.37793,8.75,1.33,-2.96,0.67,-0.17,-0.27
57.450928,9.65,0.9,-1.95,0.62,0.04,-0.15
57.523926,10.56,0.08,-1.74,0.53,0.32,0.13
57.596924,10.41,-1.02,-0.71,0.95,0.73,0.08
57.66992,10.21,-0.14,-7.45,0.91,-0.32,0.14
57.74292,8.33,-2.08,-2.42,0.61,0.43,0.39
57.815918,11.2,0.64,-4.27,1.33,-0.91,-0.97
57.888916,7.59,0.39,-2.03,0.49,0.25,-0.2
57.961914,7.71,-0.66,-1.82,0.02,0.38,0.22
58.034912,8.45,-0.85,-0.74,0,0.36,0.14
58.10791,9.62,-0.61,-0.6,0.06,0.22,-0.18
58.18091,12.3,-1.84,-0.36,0.23,0.45,-0.15
58.253906,12.71,0.1,-6.05,0.12,0.06,0.04
58.326904,8.85,-0.18,-2.54,0.53,0.32,-0.19
58.399902,10.13,0.12,-3.54,0.27,-0.11,-0.02
58.4729,6.73,-1.07,-1.43,0.47,0.2,0
58.5459,7.9,0.48,-1.97,1.12,-0.34,-0.23
58.618896,8.81,0.1,-0.61,0.9,-0.04,0
58.691895,10.34,-0.75,-0.95,1.01,-0.14,0.06
58.764893,11.72,0.06,-1.47,1.55,0.17,-0.18
58.83789,12.45,-0.54,-5.32,1.22,-0.56,-0.37
58.91089,6.98,-2.83,-3.83,0.63,0.41,0.3
58.983887,11.04,-0.75,-3.84,1.38,-0.48,-0.23
59.056885,7.25,0.26,-2.62,0.96,-0.09,-0.46
59.129883,8.04,-0.73,-2.12,0.51,0.12,0.18
59.20288,9.11,-0.78,-1.75,0.28,-0.16,-0.09
59.27588,9.9,-0.17,-1.1,0.2,0.04,-0.29
59.348877,10.4,-0.46,-0.19,-0.07,0.31,-0.37
59.421875,11.58,-1.79,-2.31,-0.01,0.39,-0.21
59.495117,11.34,0.2,-5.65,-0.49,0.2,0.24
59.568115,8.98,0.7,-3.84,0.34,-0.09,-0.31
59.641113,9.42,0.18,-3.4,0.12,0.12,0.08
59.71411,6.41,-0.95,-1.87,0.4,0.09,0.07
59.78711,8.45,0.94,-2.84,0.84,-0.3,-0.11
59.860107,8.9,0.69,-1.41,0.67,-0.07,0.02
59.933105,10.21,-0.33,-1.06,0.6,0.03,0.31
60.006104,10.94,-0.42,-0.37,0.83,0.18,0.24
60.0791,11.94,-0.51,-3.07,1.32,-0.04,-0.06
60.1521,11.3,-0.66,-6.64,0.32,0.09,0.1
60.225098,7.75,-2.34,-3.34,0.5,0.17,-0.12
60.298096,9,0.35,-3.44,0.69,-0.06,-0.35
60.371094,8.07,-0.92,-2.16,0.15,0.35,0.02
60.44409,8.43,-1.58,-2.01,-0.02,0.23,0.01
60.51709,8.4,-0.65,-1.24,-0.05,0.2,-0.17
60.590088,9.75,-0.21,-0.84,-0.1,0.07,-0.28
60.663086,10.09,-0.31,-0.39,-0.16,0.13,-0.45
60.736084,10.26,-1.16,0.39,-0.33,0.37,-0.19
60.809082,12.25,-0.3,-4.13,-0.2,-0.14,-0.01
60.88208,9.89,1.1,-4.24,-0.18,0.1,-0.11
60.95508,8.97,1.29,-3.26,0.08,-0.06,-0.17
61.028076,8.63,0.25,-2.18,-0.07,0.01,-0.02
61.101074,7.34,-0.16,-1.66,0.17,-0.01,0.16
61.174072,9.01,1.14,-2.11,0.62,-0.27,-0.03
61.24707,9.38,0.39,-1.07,0.65,-0.14,0.05
61.32007,9.68,-0.32,-0.66,0.88,0.08,0.15
61.393066,10.14,1.07,-1.29,1.3,0.21,0.01
61.466064,11.47,1.09,-3.48,1.65,-0.09,-0.35
61.539062,10.92,-1.45,-5.05,0.58,0.16,-0.04
61.61206,8.92,-3.63,-1.54,0.68,0.02,0.15
61.68506,9.34,0.32,-3.88,0.97,-0.22,-0.31
61.758057,7.09,-0.41,-1.39,0.36,0.27,0.05
61.831055,8.87,-1.53,-1.71,0.06,-0.01,0.16
61.904053,9.54,-1.67,-1.12,0.09,0,-0.23
61.97705,9.43,-0.68,-0.94,0.22,0.03,-0.44
62.05005,9.69,-0.67,-0.61,-0.07,0.11,-0.26
62.123047,10.83,-1.94,0.34,-0.33,0.19,-0.11
62.196045,11.51,-1.44,-1.92,-0.17,0.05,-0.02
62.269043,10.69,0.87,-4.57,-0.23,-0.04,0.11
62.34204,9.48,2.24,-4.07,0.04,-0.16,-0.03
62.41504,8.89,1.22,-2.97,-0.12,-0.12,0.05
62.488037,6.97,-0.57,-1.67,-0.08,-0.04,0.33
62.561035,8.79,0.46,-1.97,0.4,-0.25,0.1
62.634033,8.76,0.07,-1.54,0.64,0.04,0.06
62.70703,9.54,0.2,-0.88,0.76,0.06,0.1
62.78003,10.8,0.58,-1,0.76,-0.02,0.08
62.853027,11.92,0.44,-0.5,0.96,0.31,-0.11
62.926025,12.12,-1.31,-7.05,0.68,-0.67,-0.27
62.999023,8.26,-3.18,-4.22,0.01,0.25,0.05
63.07202,8.49,-0.39,-4,0.58,-0.2,-0.18
63.14502,7.03,-0.25,-2.56,0.51,0.09,-0.24
63.218018,8.81,-1.61,-2.57,0.15,0,0.2
63.291016,9.83,-1.68,-1.88,0.11,-0.07,-0.13
63.364014,9.6,-0.69,-1.09,0.09,0.27,-0.14
63.43701,9.48,-0.39,-0.69,-0.1,0.46,-0.22
63.51001,10.57,-2.26,-0.1,0.02,0.82,-0.32
63.583008,12.33,-0.31,-6.29,-0.1,-0.31,0.05
63.656006,9.79,-0.62,-4.35,0.03,0.16,0.06
63.729004,9.01,-0.58,-3.32,0.56,-0.23,-0.12
63.802002,6.64,-0.64,-1.97,0.49,-0.19,-0.04
63.875,8.09,-0.02,-2.54,0.62,-0.23,0.05
63.947998,9.09,0.68,-2.37,0.69,-0.27,-0.21
64.020996,9.62,-0.38,-1.25,0.5,-0.07,0
64.093994,10.75,-0.08,-1.95,0.33,0,0.19
64.16699,12.56,-1.42,-0.77,0.84,0.24,-0.08
64.23999,10.58,-0.79,-7.24,0.74,-0.31,0.02
64.31299,8.12,-2.74,-4.23,0.34,0.15,0.08
64.38599,9.38,-0.19,-4.35,0.79,-0.21,-0.28
64.458984,6.3,-0.56,-2.6,0.45,0.08,-0.18
64.53198,8.68,-1.24,-2.68,0.15,-0.16,0.12
64.60498,9.38,-1.44,-2.62,-0.12,-0.3,-0.01
64.67798,9.41,-0.73,-1.97,-0.29,-0.01,0.04
64.75098,11.34,-0.59,-1.18,-0.49,0.02,-0.1
64.823975,13.13,-1.32,-3.21,-0.44,0.1,-0.14
64.89697,11.54,-0.67,-7.04,-0.89,-0.03,0.12
64.96997,7.33,1.41,-5.84,-0.53,0.18,0.05
65.04297,10.3,0.54,-4.77,-0.24,-0.02,-0.13
65.11597,5.79,-0.2,-2.95,-0.56,0.34,0.05
65.188965,6.71,0.86,-3.2,-0.31,0.11,0.15
65.26196,8.62,0.93,-2.77,-0.44,0.07,0.1
65.33496,8.47,0.28,-2.44,-0.52,0.3,0.24
65.40796,10.68,-0.21,-1.58,-0.26,0.18,0.45
65.48096,11.2,0.1,-0.86,0.26,0.48,0.24
65.553955,12.32,-0.12,-3.76,0.99,0.02,-0.19
65.62695,8.72,0.1,-5.6,-0.15,0.42,-0.03
65.69995,8.98,-1.86,-3.68,-0.29,-0.07,0.27
65.77295,9.05,0.2,-3.62,-0.05,0.1,-0.21
65.84595,6.81,-0.54,-2.34,-0.35,0.18,0.04
65.918945,8.41,-1.28,-2.69,-0.84,-0.21,0.22
65.99194,9.83,-1.58,-1.78,-0.83,-0.07,0.13
66.06494,10.28,-0.56,-1.61,-0.45,0.24,-0.29
66.13794,10.67,-1.77,-0.17,-0.56,0.73,-0.1
66.21094,12.34,-1.57,-4.63,-0.17,0.11,-0.12
66.283936,9.22,1.03,-4.71,-0.09,0.4,-0.05
66.35693,8.58,0.65,-3.33,0.08,-0.19,-0.2
66.42993,8.16,-0.35,-2.95,-0.25,-0.17,0.06
66.50293,7.3,-0.21,-2.29,0.03,-0.22,0
66.57593,9.08,0.94,-2.94,0.41,-0.28,-0.19
66.648926,9.57,0.2,-1.14,0.34,0.05,0.08
66.721924,10.71,-0.01,-1.35,0.27,0.15,0.41
66.79492,12.44,0.04,-2.22,1.03,0.43,0.01
66.86792,11.75,-1.45,-4.52,0.77,-0.23,-0.16
66.94092,6.79,-2.49,-3.77,0.34,0.53,0.27
67.013916,10.14,-0.58,-3.67,0.88,-0.41,-0.21
67.086914,7.36,-0.67,-2.43,0.29,0.14,-0.3
67.15991,7.52,-1.38,-2.31,-0.01,0.01,0.1
67.23291,9.1,-1.12,-2.2,-0.28,-0.33,-0.02
67.30591,10.32,-0.69,-1.3,-0.31,-0.04,-0.14
67.37891,11.06,-1.59,-0.91,-0.37,0.35,-0.36
67.451904,11.84,-2.11,-3.5,-0.05,0.34,-0.15
67.5249,10.64,0.82,-5.23,0,0.41,-0.2
67.5979,7.73,0.42,-3.93,0.03,-0.01,-0.35
67.6709,9.02,-0.39,-3.39,-0.24,-0.07,0.14
67.7439,6.87,-0.59,-1.87,0.2,0.03,0.07
67.816895,9.09,1.13,-2.78,0.53,-0.22,-0.02
67.88989,9.81,0.81,-1.53,0.37,0,0.05