NAME:,walk_111_4_1.csv,,,,,
EXPERIMENT TIME:,20/03/2024 18:31:08,,,,,
ACTIVITY TYPE:,Walking,,,,,
COUNT OF ACTUAL STEPS:,82,,,,,
,,,,,,
Time [sec],ACC X,ACC Y,ACC Z,GYRO X,GYRO Y,GYRO Z
0.07299805,9.83,-3.18,-1.71,-0.84,0.22,0.88
0.1459961,8.96,-3.76,-0.75,-0.35,-0.12,0.25
0.21899414,8.98,-3.86,-1.58,0.19,-0.29,-0.14
0.29223633,9.4,-3.07,-1.75,0.26,-0.24,-0.33
0.36523438,8.74,-2.75,-1.79,0.22,-0.09,-0.29
0.43823242,9.09,-3.07,-1.77,0.07,-0.01,-0.07
0.51123047,9.02,-3.48,-1.53,0.06,-0.02,0.02
0.5842285,10.24,-2.62,-1.82,0.18,-0.03,-0.27
0.65722656,9.17,-4.06,-0.36,0.13,0.33,-0.14
0.7302246,9.39,-3.35,-1.88,0.46,0.27,-0.31
0.80322266,10.48,-2.79,-2.86,0.54,-0.19,-0.57
0.8762207,7.81,-1.78,-3.3,0.31,0.25,-0.38
0.94921875,8.85,-0.69,-2.65,0.15,-0.07,-0.23
1.0222168,10.09,-2.2,-1.7,0.4,-0.48,-0.13
1.0952148,7.94,-1.99,-1.88,0.27,-0.22,0.09
1.1682129,8.12,-1.43,-1.84,0.72,-0.49,-0.11
1.2412109,9.01,-1.01,-1.43,0.87,-0.45,-0.16
1.314209,9.66,-0.78,-1.07,0.86,-0.32,-0.12
1.387207,10.66,-0.1,-1.11,0.64,-0.12,-0.21
1.4602051,13.42,-1.8,-1.16,0.42,0.02,-0.16
1.5332031,11.55,-2.43,-6.87,0.13,-0.25,-0.4
1.6062012,7.77,-2.38,-4.59,-0.19,0.62,0
1.6791992,9.04,-0.15,-3.9,0.27,-0.06,-0.44
1.7521973,5.87,-0.53,-2.75,-0.64,0.58,0
1.8251953,6.8,-1.67,-1.92,-0.93,0.33,0.28
1.8981934,9.52,-1.65,-0.71,-0.74,0.34,0.18
1.9711914,11.05,-1.63,-1.01,-0.43,0.39,-0.23
2.0441895,12.93,-2.62,-2,-0.36,0.58,0.02
2.1171875,10.31,0.59,-7.75,-0.18,-0.42,-0.03
2.1901855,11.5,0.5,-3.85,-0.23,-0.07,-0.18
2.2631836,6.11,-0.71,-2.39,-0.64,0.17,0.29
2.3361816,4.71,-0.54,-1.29,-0.12,0.02,0.38
2.4091797,7.51,0.23,-1.21,0.41,-0.1,-0.01
2.4821777,7.43,0.6,-0.26,0.51,0.22,0
2.5551758,8.99,0.76,-0.14,0.37,0.05,0.18
2.6281738,10.26,1.84,-0.33,0.64,-0.01,-0.38
2.7011719,13.6,-2.21,-13.6,0.15,-0.81,-0.76
2.77417,15.4,-6.28,-4.64,-1.5,0.34,0.21
2.847168,8.83,-0.94,-4.41,-0.49,-0.15,0
2.920166,7.22,-0.46,-2.23,-0.35,-0.1,-0.02
2.993164,7.03,0.2,-1.9,-0.55,-0.25,-0.15
3.066162,7.96,-0.63,0.14,-1.03,0.72,-0.05
3.1391602,10.29,-2.65,0.56,-0.83,0.69,-0.01
3.2121582,13.44,-3.86,-7.4,0.31,-0.45,0.5
3.2851562,12.31,0.29,-6.82,0.59,0.28,0.17
3.3581543,9.09,-1.67,-4.59,1.08,0.07,-0.47
3.4311523,5.19,-1.49,-2.33,0.76,-0.18,0.34
3.5041504,6.04,-0.63,-3.2,1.21,-0.6,0.16
3.5771484,8.23,0.07,-2.35,1.36,-0.2,-0.37
3.6501465,9.62,-1.29,-1.72,1.21,0.03,-0.22
3.7231445,13.52,-1.19,-1.43,1.59,0.32,-0.35
3.7961426,12.33,-4.04,-8.87,1.51,-0.92,-0.5
3.8691406,8.11,-5.15,-4.65,0.21,0.18,0.11
3.9421387,8.64,-2.07,-3.73,1.06,-0.68,-0.36
4.0151367,5.9,-0.86,-3.96,0.88,-0.21,-0.53
4.088135,7.75,-1.61,-2.05,0.23,-0.04,-0.15
4.161133,8.79,-2.21,-0.85,-0.16,0.38,-0.12
4.234131,8.98,-2.9,-1.24,-0.2,0.68,-0.2
4.307129,12.21,-4.8,-2.82,0.48,0.49,-0.5
4.380127,11.62,-1.84,-7.4,0.7,-0.69,0.36
4.453125,10.47,-2.98,-4.56,1.46,-0.08,-0.22
4.526123,7.24,-1.65,-4,1.88,-0.34,-0.29
4.599121,6,-1.28,-3.9,1.46,-0.48,0.16
4.672119,8.19,-0.76,-3.28,1.5,-0.31,-0.19
4.745117,7.05,-1.02,-1.15,1.7,0.54,-0.29
4.818115,11.62,-0.59,-0.26,1.45,-0.03,0.17
4.8911133,13.96,-2.27,-4.42,2.04,-0.7,-1.04
4.9641113,11.43,-3.92,-6.64,-0.09,0.21,-0.49
5.0371094,9.53,-3.61,-3.43,-0.22,-0.1,0.03
5.1101074,7.5,-0.67,-4.09,0.37,-0.53,-0.7
5.1831055,4.75,-0.97,-2.84,-0.67,0.43,0.22
5.2561035,7.62,-1.63,-2.24,-1.14,0.07,0.44
5.3291016,9.88,-1.95,-0.91,-1,0.7,0.11
5.4020996,12.15,-2.33,0.13,-0.27,0.63,-0.57
5.4750977,13.22,-4.71,-7.88,-0.29,-0.58,0.27
5.5480957,10.15,-0.93,-6.02,0.58,0.72,0.15
5.6210938,9.06,-1.75,-4.6,1.32,-0.24,-0.54
5.694092,5.69,-0.93,-2.68,0.83,0.23,0.11
5.76709,5.93,-0.45,-2.62,1.16,-0.4,-0.01
5.840088,7.58,0.69,-2.35,1.22,-0.19,-0.28
5.913086,9.36,-1.29,-1.37,0.88,0.12,0.13
5.986084,13.25,-1.41,-3,1.11,-0.09,0.04
6.059082,13.64,-2.03,-7.13,1,-0.7,-0.93
6.13208,7.2,-4.95,-4.73,0.24,0.33,0.11
6.205078,10.16,-2.01,-3.94,1.19,-0.58,-0.43
6.278076,6.49,-0.76,-3.3,0.93,-0.25,-0.64
6.351074,6.44,-1.25,-1.87,0.36,0.27,0.01
6.4240723,9.18,-1.55,-1.71,0.35,-0.01,-0.2
6.4970703,9.3,-1.48,-1.52,0.42,0.54,-0.52
6.5700684,10,-1.44,0.07,0.34,0.56,-0.5
6.6430664,12.74,-3.32,-6.22,0.44,-0.15,-0.31
6.7160645,9.23,-1.92,-6.79,-0.37,0.28,0.54
6.7890625,9.81,-2.77,-3.53,1.12,-0.45,-0.24
6.8620605,5.75,-1.19,-3.63,1.31,-0.15,-0.16
6.9350586,7.6,0.07,-2.85,1.74,-0.41,-0.26
7.0080566,9.32,0.5,-2.4,1.81,-0.21,-0.49
7.0810547,10.13,-1.6,-0.63,1.24,0.28,0.14
7.1540527,12.26,-1.21,-1.92,1.54,0.35,-0.01
7.227051,12.77,-3.53,-7.47,1.33,-0.8,-0.05
7.300049,7.96,-4.33,-3.88,0.47,0.49,0.05
7.373047,8.7,-1.44,-3.93,1.16,-0.57,-0.12
7.446045,5.55,-1.16,-2.5,0.63,0.01,-0.22
7.519043,7.98,-1.95,-2.18,0.13,-0.22,0.22
7.592041,11.03,-2.34,-1.65,-0.12,-0.13,-0.03
7.665039,10.92,-2.42,0.07,0.1,0.65,-0.62
7.738037,10.24,-2.45,-3.49,-0.02,0.87,-0.32
7.811035,11.4,0.11,-6.96,-0.5,-0.36,0.32
7.884033,9.55,-0.48,-3.37,0.01,0.16,-0.17
7.9570312,6.58,-0.87,-3.38,-0.12,-0.09,-0.09
8.030029,6.49,-0.82,-2,0.08,-0.11,0.09
8.103027,9,0.14,-2.43,0.57,-0.47,-0.06
8.176025,11.01,-1.24,-1.23,0.39,0.17,0.23
8.249023,11.62,-1.32,-0.62,0.63,0.65,0.35
8.3220215,12.18,-1.55,-8.95,1.05,-0.55,-0.23
8.39502,9.62,-2.01,-4.84,-0.25,0.72,-0.06
8.468018,8.62,-1.73,-3.73,0.05,0.04,-0.12
8.541016,5.35,-0.65,-2.97,-0.41,0.24,-0.06
8.614014,8.05,-1.71,-2.3,-0.81,0.02,0.23
8.687012,9.02,-1.27,-1.13,-0.86,0.22,0.06
8.76001,9.77,-1.29,-0.95,-0.37,0.28,-0.44
8.833008,13.38,-1.45,-2.94,-0.48,0.4,-0.24
8.906006,10.91,0.14,-7.39,-0.59,-0.11,0.02
8.979004,9.98,-0.77,-4.33,-0.62,0.17,0.05
9.052002,6.75,-1.07,-2.97,-0.74,0.13,0.24
9.125,5.79,-0.14,-1.86,-0.26,-0.07,0.14
9.197998,8.35,1.2,-2.86,0.37,-0.58,-0.22
9.270996,9.79,0.26,-1.09,-0.11,0,0.21
9.343994,12.13,-1.37,-1.12,0.01,-0.11,0.34
9.417236,12.46,-2.02,-4.47,1.07,0.28,-0.1
9.490234,10.24,0.07,-8.17,0.17,0.23,-0.11
9.563232,9.58,-1.69,-3.48,0.06,0.02,-0.34
9.63623,6.68,-0.25,-3.82,-0.21,0.18,-0.31
9.7092285,6.46,-0.87,-2.71,-0.66,0.22,0.21
9.782227,8.59,-1.58,-2.38,-0.79,0.03,0.27
9.855225,9.7,-1.18,-1.24,-0.52,0.35,0.02
9.928223,10.94,-1.54,-0.33,-0.29,0.38,-0.21
10.001221,11.78,-1.64,-4.05,0.23,0.3,-0.26
10.074219,10.45,0.27,-5.94,-0.28,0.14,0.08
10.147217,9.7,-0.93,-3.82,-0.15,-0.07,0.12
10.220215,8.07,-1.08,-3.14,-0.17,0.08,0.25
10.293213,7.08,-0.25,-2.08,0.56,-0.26,-0.11
10.366211,7.1,0.37,-1.85,0.68,-0.23,-0.15
10.439209,9.15,-0.92,-0.78,0.54,-0.06,0.22
10.512207,12.95,-0.79,-0.53,0.8,0.03,0.16
10.585205,13.13,-1.8,-6.98,1.53,-0.42,-0.6
10.658203,9.02,-2.9,-4.48,0.24,0.62,-0.11
10.731201,9.53,-2.22,-3.94,0.62,-0.32,0.01
10.804199,6.52,-0.46,-2.9,0.44,0.06,-0.25
10.877197,6.73,-1.07,-2.07,0.01,0.09,0.08
10.950195,8.85,-1.98,-1.41,-0.29,-0.16,0.14
11.023193,10.53,-1.84,0.09,0.15,0.38,-0.23
11.096191,10.68,-1.85,-0.51,0.35,0.54,-0.44
11.169189,12.73,-2.09,-6.86,0.4,-0.59,-0.07
11.2421875,9.05,-1.75,-4.99,-0.17,0.19,0.37
11.315186,8.34,-2.07,-3.13,0.29,-0.39,0.06
11.388184,6.9,-0.09,-2.88,0.6,-0.28,-0.16
11.461182,7.98,0.27,-2.69,0.61,-0.37,-0.42
11.53418,8.37,0.01,-1.81,0.24,0.23,0.14
11.607178,11.09,-2.26,-1.2,0.43,-0.02,0.27
11.680176,12.2,-1.57,-0.46,1.18,0.58,-0.07
11.753174,10.3,-2.29,-8.83,1.63,-0.62,-0.32
11.826172,10.06,-2.76,-4.97,0.26,0.1,-0.16
11.89917,7.56,-1.75,-4.02,0.12,-0.28,-0.14
11.972168,5.35,-1.29,-2.39,-0.2,0.13,0.07
12.045166,8.99,-1.95,-2.41,-0.41,-0.41,0.13
12.118164,9.98,-1.61,-1.44,-0.52,0.31,-0.06
12.191162,9.93,-2.54,-0.46,-0.22,0.69,-0.52
12.26416,11.77,-3.89,-6.47,0.18,0.2,-0.3
12.337158,11.3,-1.01,-5.05,0.1,0.34,0.2
12.410156,9.07,-2.09,-3.94,0.88,-0.1,-0.31
12.483154,5.75,-1.41,-3,0.62,0.18,0.06
12.556152,6.64,-0.62,-2.23,0.96,-0.28,-0.16
12.62915,9.25,0.44,-2.09,1.1,-0.38,-0.17
12.702148,11.47,-1.01,-1.69,0.84,-0.22,-0.14
12.7751465,12.68,-2.34,0.24,1.05,0.48,-0.19
12.848145,10.96,-2.1,-8.75,0.8,-0.82,0.02
12.921143,7.96,-2.99,-4.2,0.46,0.33,-0.17
12.994141,8.68,-0.24,-4.77,0.91,-0.45,-0.48
13.067139,6.14,-1.09,-2.74,0.01,0.11,-0.02
13.140137,8.36,-1.78,-3.06,-0.37,-0.21,0.23
13.213135,9.35,-1.35,-1.63,-0.34,0.06,0.06
13.286133,10.61,-1.44,-0.73,-0.04,0.45,-0.41
13.359131,11.41,-2.79,-0.84,0.08,0.92,-0.35
13.432129,11.45,-1.56,-8.17,0.18,-0.31,0.17
13.505127,9.14,-0.58,-4.24,0.41,0.23,-0.14
13.578125,7.92,-0.75,-3.93,0.28,-0.12,0.02
13.651123,6.64,-0.86,-2.37,0.45,-0.22,-0.04
13.724121,8.09,0.27,-2.54,1.02,-0.49,-0.33
13.797119,8.64,0,-1.61,0.87,0.01,-0.08
13.870117,10.92,-0.91,-1.5,0.64,-0.09,0.29
13.943115,13.95,-0.56,-1.95,1.08,0.26,-0.32
14.016113,9.85,-0.68,-8.24,0.16,0.09,0.07
14.089111,9.62,-2.97,-4.67,-0.1,0.18,0.08
14.162109,8.6,-0.08,-4.05,0.27,-0.11,-0.4
14.235107,5.41,-0.4,-2.88,-0.54,0.24,0.16
14.308105,8.05,-1.46,-2.67,-0.84,-0.1,0.39
14.3811035,9.58,-1.65,-2.46,-0.87,-0.09,0.33
14.454102,11.34,-1.28,-0.55,-0.7,0.41,0.19
14.528076,14.63,-2.44,-3.67,-0.54,-0.04,-0.23
14.601074,9.51,-0.68,-7.49,-0.56,0.19,0.24
14.674072,8.98,1.63,-6.53,-0.18,0.09,-0.22
14.74707,8.53,-0.52,-3.41,-0.63,0.12,-0.06
14.820068,4.82,-0.5,-2.41,-0.65,0.3,0.25
14.893066,6.85,0.47,-2.65,-0.25,0.01,0.07
14.966064,8.58,0.42,-1.95,-0.29,0.04,0.24
15.0390625,11.36,-0.88,-1.34,-0.18,0.2,0.5
15.112061,13.25,-0.48,-0.98,0.53,0.66,0.01
15.185059,11.57,-0.48,-7.88,0.36,0.08,0.15
15.258057,8.13,-2.63,-3.27,-0.23,0.47,0.01
15.331055,8.54,-0.52,-3.72,0.02,0.18,0.06
15.404053,6.07,-0.46,-2.48,-0.25,0.18,-0.1
15.477051,8.39,-1.61,-2.03,-0.61,0,0.12
15.550049,9.74,-2.09,-0.73,-0.61,0.13,0.01
15.623047,9.51,-1.93,-0.1,-0.06,0.27,-0.28
15.696045,11.72,-1.84,0.23,0.12,0.81,-0.3
15.769043,11.86,-0.82,-7.74,-0.17,0,0.33
15.842041,10.19,-1.86,-2.82,0.02,-0.15,-0.18
15.915039,7.58,-1.82,-2.31,-0.05,0.12,0.1
15.988037,6.66,-0.71,-2.31,0.6,-0.44,-0.28
16.061035,7.85,0.52,-1.24,0.64,-0.37,-0.24
16.134033,9.77,-1.05,-0.14,0.48,0.02,0.08
16.207031,11.38,-1.71,0.58,0.6,0.39,0.14
16.28003,13.37,-1.41,-8.32,1.01,-0.24,-0.01
16.353027,11.04,-2.03,-5.05,-0.15,0.31,-0.13
16.426025,8.03,-0.78,-3.74,0.09,-0.15,-0.26
16.499023,5.43,-0.34,-2.57,-0.49,-0.03,0.01
16.572021,7.5,-1.16,-2.48,-0.92,0,0.36
16.64502,9.51,-2.47,-1.42,-1.02,0.13,0.37
16.718018,10.46,-2.42,-0.71,-0.35,0.17,-0.12
16.791016,11.36,-2.32,0.41,-0.17,0.63,-0.05
16.864014,12,-1.44,-7.19,0.59,-0.32,-0.3
16.937012,9.43,-0.22,-4.84,-0.2,0.47,0.14
17.01001,8.68,-1.66,-3.13,0.07,-0.26,-0.07
17.083008,6.73,-1.31,-2.69,0.04,-0.12,0.02
17.156006,7.51,-0.27,-2.32,0.51,-0.31,-0.09
17.229004,8.71,0.03,-1.8,0.5,-0.06,-0.1
17.302002,9.79,-1.52,-1.27,0.36,0.01,0.15
17.375,12.34,-1.61,-0.93,1.02,0.41,0.01
17.447998,12.08,-1.84,-8.05,1.25,-0.6,-0.63
17.520996,8.95,-3.49,-4.45,0.39,0.24,-0.23
17.593994,8.62,-1.52,-4.35,0.52,-0.16,-0.17
17.667236,6.71,-0.76,-2.79,0.27,-0.07,-0.22
17.740234,7.79,-1.92,-2.44,-0.02,-0.12,0.08
17.813232,9.12,-1.99,-2.16,0.03,-0.14,-0.16
17.88623,9.32,-1.82,-0.9,0.36,0.16,-0.56
17.959229,10.57,-2.04,-2.29,0.36,0.44,-0.45
18.032227,12.53,-2.86,-7.28,0.38,-0.04,-0.1
18.105225,9.12,-2.48,-4.64,0.81,0.43,0
18.178223,9.94,-2.5,-4.35,1.31,-0.07,-0.09
18.25122,6.57,-1.29,-3.62,1.63,0.05,-0.26
18.324219,8.33,-0.6,-3.59,1.9,-0.31,-0.38
18.397217,8.95,-0.9,-2.5,1.73,-0.07,-0.42
18.470215,9.05,-1.92,-1.37,1.38,0.11,-0.02
18.543213,9.96,-1.58,-1.08,1.49,0.02,-0.12
18.61621,10.88,-2.17,-2.65,1.85,0.05,-0.27
18.689209,10.45,-2.45,-6.23,1.01,-0.31,0.04
18.762207,8.21,-2.74,-3.22,1.5,-0.3,-0.07
18.835205,8.96,-0.27,-3.9,1.54,-0.39,-0.45
18.908203,6.56,-1.88,-1.98,0.83,-0.03,-0.01
18.981201,8.79,-2.24,-2.23,0.73,-0.41,-0.09
19.0542,10.58,-1.9,-1.19,0.56,-0.29,-0.23
19.127197,11.1,-1.96,0.08,0.49,0.24,-0.41
19.200195,11.24,-3.63,-2.2,0.41,0.5,-0.03
19.273193,11.65,-1.78,-6.34,0.21,-0.03,0.31
19.346191,8.79,-0.03,-4.41,0.51,-0.02,-0.36
19.41919,8.28,-0.69,-3.43,0.52,-0.27,-0.38
19.492188,6.71,-0.36,-3.03,0.38,-0.16,-0.17
19.565186,8.06,0.34,-3.09,0.64,-0.33,-0.21
19.638184,8.63,0.49,-1.74,0.49,0,-0.13
19.711182,10.17,-1.02,-1.9,0.37,0.14,0.22
19.78418,12.65,-1.14,-1.16,0.69,0.59,0.27
19.857178,11.87,0.6,-8.77,0.43,-0.12,0.02
19.930176,8.13,-1.9,-3.84,-0.58,0.6,0.07
20.003174,8.62,-0.65,-3.74,-0.23,0.08,-0.25
20.076172,6.96,-0.56,-3.06,-0.65,0.17,-0.03
20.14917,8.3,-1.27,-3.07,-0.91,0.14,0.19
20.222168,8.32,-1.59,-2.06,-1.06,0.12,0.29
20.295166,10.02,-1.27,-0.63,-0.66,0.17,0.08
20.368164,11.51,-1.85,0.09,-0.45,0.43,-0.16
20.441162,11.98,-2,-5.88,0.1,0.15,-0.22
20.51416,10,0.59,-5.8,-0.42,0.25,0.3
20.587158,9.31,-1.66,-3.29,-0.1,-0.13,-0.05
20.660156,6.18,-1.32,-2.73,-0.1,0.1,0.28
20.733154,7.47,-0.2,-2.4,0.61,-0.28,-0.13
20.806152,8.58,1.05,-2.21,0.87,-0.22,-0.37
20.87915,10.37,-1.17,-0.97,0.72,0.09,-0.07
20.952148,11.93,-0.65,-0.5,0.32,0.28,0.3
21.025146,12.51,-1.7,-5.73,0.89,-0.12,-0.16
21.098145,9.47,-0.31,-5.22,-0.44,0.66,0.19
21.171143,9.51,-1.02,-3.62,-0.08,-0.17,-0.22
21.24414,7.09,-0.41,-3.33,-0.54,0.17,-0.25
21.317139,6.94,-1.36,-2.23,-1.07,0.2,0.29
21.390137,8.73,-1.92,-2.56,-1.27,-0.18,0.31
21.463135,9.95,-1.43,-0.9,-0.97,0.18,0.1
21.536133,10.48,-2.39,-0.31,-0.75,0.25,-0.14
21.60913,12.28,-3.41,-3.81,-0.04,0.18,-0.13
21.682129,10.59,-0.84,-6.24,0.1,0.18,0.2
21.755127,9.73,-1.24,-4.06,0.73,-0.03,-0.31
21.828125,7.76,-1.74,-2.84,0.63,-0.03,0.04
21.901123,6.6,-0.99,-2.9,1.18,-0.33,-0.17
21.974121,7.87,0.16,-3.2,1.49,-0.35,-0.37
22.04712,8.6,-0.63,-1.56,1.21,-0.18,-0.18
22.120117,11,-1.77,-1.82,1.11,-0.18,0.06
22.193115,12.34,-1.56,-1.37,1.47,0.34,-0.16
22.266113,11.53,-2.12,-6.65,1.32,-0.32,-0.2
22.339111,7.73,-2.75,-4.46,0.4,0.1,0.03
22.41211,8.58,-1.2,-3.35,0.7,-0.42,-0.13
22.485107,6.86,-0.63,-2.76,0.26,-0.13,-0.25
22.558105,8.2,-1.98,-2.2,-0.31,-0.1,0.27
22.631104,9.38,-2.7,-2.31,-0.46,0.02,0.23
22.704102,10.36,-2.03,-1.08,-0.13,0.32,-0.29
22.7771,11.68,-3.01,-0.07,-0.14,0.71,-0.24
22.850098,11.52,-2.52,-7.2,0.35,-0.08,-0.21
22.923096,9.17,0.05,-5.3,-0.02,0.55,0.12
22.996094,8.53,-1.27,-3.25,0.21,-0.29,-0.15
23.069092,6.36,-1.43,-2.47,0.13,-0.03,0.15
23.14209,7.45,-0.73,-2.83,0.52,-0.42,0.04
23.215088,9.28,-0.53,-2.43,0.41,-0.22,0.1
23.288086,10.3,-1.65,-1.2,0.48,-0.05,0.09
23.361084,11.25,-1.36,-1.02,0.62,0.21,0.24
23.434082,12.25,-0.83,-3.58,1.23,-0.09,-0.58
23.50708,10.02,-0.63,-7.9,-0.32,0.02,-0.22
23.580078,7.67,-3.67,-2.7,-0.75,0.29,0.26
23.653076,8.36,-0.53,-4.3,-0.08,-0.13,-0.36
23.726074,7.3,-0.86,-2.65,-0.53,0.3,-0.07
23.799072,8.35,-1.8,-2.47,-0.91,0.11,0.19
23.87207,9.73,-1.99,-1.15,-0.8,0.34,0.11
23.945068,10.04,-1.65,-0.67,-0.56,0.38,-0.18
24.018066,11.63,-2.96,-1.78,-0.29,0.54,0.04
24.091064,11.75,-0.66,-7.17,-0.06,-0.2,0.19
24.164062,8.88,-0.38,-4.01,0.15,0.09,-0.11
24.23706,8.24,-1.44,-3.36,0.15,-0.13,0.06
24.310059,5.8,-1.34,-2.01,0.42,-0.08,-0.01
24.383057,8.48,-0.12,-2.92,0.97,-0.55,-0.29
24.456055,9.68,-0.01,-2.14,0.55,-0.2,-0.05
24.529053,10.58,-1.33,-0.96,0.64,0.05,0.09
24.60205,12.09,0.16,-0.73,1.14,0.38,-0.28
24.675049,11.34,-1.67,-6.68,1.09,-0.37,-0.33
24.748047,9.94,-2.38,-5.41,-0.17,0.38,-0.03
24.821045,8.34,-1.53,-3.22,0.28,-0.08,-0.26
24.894043,6.26,-0.04,-3.3,0.01,0.15,-0.25
24.967041,8.2,-1.3,-2.47,-0.44,0.05,0.16
25.04004,9.03,-1.78,-2.13,-0.56,0.03,0.07
25.113037,9.26,-1.8,-0.63,-0.26,0.25,-0.17
25.186035,10.47,-1.75,0.3,-0.15,0.4,-0.22
25.259033,11.75,-2.56,-4.63,0.73,0.23,-0.51
25.332031,11.86,-0.07,-6.59,0.09,0.35,0.13
25.40503,9.5,-2.78,-3.3,0.77,0.08,-0.13
25.478027,8.05,-1.69,-3.88,1.47,0.14,-0.01
25.551025,7.11,-0.15,-3.26,2.05,-0.26,-0.2
25.624023,8.47,-0.08,-3.39,2.14,-0.34,-0.21
25.697021,8.19,-1.61,-2.63,2.53,-0.28,-0.19
25.77002,6.5,-1.88,-5.37,3,-0.23,-0.23
25.843018,8,-2.9,-8.14,3.27,-0.89,-0.16
25.916016,16.45,-3.24,-5.81,3.32,-1.83,-0.76
25.989014,9.69,-5.03,-2.3,3.71,-0.53,-1.46
26.062012,7.27,-2.63,-3.09,2.82,-0.56,-0.55
26.13501,8.58,-2.01,-3.95,2.3,-0.57,-0.87
26.208008,8.39,-1.35,-2.71,1.68,-0.38,-1.17
26.281006,8.76,-2.4,-1.63,1.51,-0.21,-1.22
26.354004,9.25,-3.03,-1.43,0.83,-0.01,-0.7
26.427002,12.3,-3.34,-2.66,0.67,-0.24,-0.33
26.5,11.01,-1.22,-7.44,1.22,-0.03,-0.26
26.572998,11.7,1.61,-7.94,1.67,-0.49,-0.6
26.645996,6.85,1.61,-5.68,1.34,-0.1,-0.63
26.718994,5.94,1.57,-4.94,1.46,-0.13,-0.65
26.792236,7.5,0.52,-4.2,1.08,-0.13,-0.55
26.865234,8.42,-1.01,-2.87,0.83,0.04,-0.27
26.938232,9.84,-1.24,-2.85,1.3,0.32,-0.37
27.01123,11.54,-0.83,-2.29,1.72,0.89,-0.24
27.084229,11.07,0.81,-11.15,1.76,-0.16,-0.18
27.157227,9.1,-2.39,-5.98,0.09,0.6,-0.17
27.230225,9.41,-1.46,-4.92,0.57,0.02,-0.16
27.303223,6.04,-0.24,-4.16,0.28,0.03,-0.4
27.37622,7,-0.25,-3.02,-0.24,0.42,0.1
27.449219,8.41,-1.03,-2.46,-0.44,0.21,0.1
27.522217,10.3,-0.88,-1.82,-0.23,0.52,-0.2
27.595215,10.85,-0.73,-1.49,-0.31,0.82,-0.49
27.668213,12.85,-0.52,-7.17,-0.02,-0.2,-0.43
27.74121,9.26,-0.1,-4.8,-0.38,0.45,0.24
27.814209,7.62,0.31,-4.45,0.4,-0.18,-0.02
27.887207,6.9,0.16,-2.31,0.5,-0.09,-0.06
27.960205,7.69,0.99,-2.92,0.84,-0.21,-0.04
28.033203,9.88,1.66,-2.31,0.89,-0.08,-0.18
28.106201,9.05,0.56,-1.56,0.81,0.14,0.01
28.1792,11.28,1.29,-1.8,0.79,0.33,0.12
28.252197,14.13,0.52,-6.2,1.41,-0.33,-0.52
28.325195,10.03,-2.65,-4.48,-0.08,0.61,0.05
28.398193,7.94,-2.9,-2.89,0.3,0.22,0.19
28.471191,7.26,0.08,-3.24,0.44,0.05,-0.1
28.54419,6.41,-0.1,-2.5,0.02,0.09,0.05
28.617188,9.34,-0.89,-1.99,-0.42,-0.17,0.24
28.690186,10.25,-0.77,-1.18,-0.41,0.06,-0.02
28.763184,9.9,-0.35,-0.75,-0.15,0.35,-0.45
28.836182,11.91,-1.07,-0.55,-0.29,0.68,-0.27
28.90918,11.82,-0.37,-6.91,-0.46,-0.42,-0.01
28.982178,9.26,-0.38,-4.29,-0.58,0.13,0.3
29.055176,7.73,-0.73,-3.28,-0.26,-0.16,0.2
29.128174,5.73,-0.57,-2.36,0.1,-0.27,0.21
29.201172,8.54,0.92,-3.34,0.72,-0.75,-0.16
29.27417,10.42,0.52,-1.67,0.91,-0.35,-0.27
29.347168,10.81,0.1,-2.48,0.7,0.05,0.16
29.420166,13.74,0.21,-3.22,0.85,0.44,-0.18
29.493164,9.96,0.37,-7.27,-0.17,0.29,0.04
29.566162,8.36,-1.77,-3.96,-0.77,0.5,0.45
29.63916,8.22,0.02,-5.16,-0.31,-0.16,-0.2
29.712158,6.69,-0.46,-3.19,-0.89,0.3,0.12
29.785156,8.45,-0.89,-3.12,-1.22,0.09,0.38
29.858154,9.17,-0.91,-2.24,-1.29,0.23,0.3
29.931152,9.95,-0.62,-1.82,-0.99,0.26,-0.05
30.00415,10.87,-1.72,-0.01,-1.17,0.62,0.14
30.077148,11.63,-0.44,-6.36,-0.22,-0.05,-0.26
30.150146,9.96,0.93,-4.32,-0.83,0.41,0.25
30.223145,9.66,-0.44,-3.82,-0.36,-0.21,-0.15
30.296143,6.21,-1.17,-2.45,-0.61,-0.03,0.33
30.36914,7.2,0.17,-2.52,0.13,-0.3,0.08
30.442139,8.81,1.09,-2.93,0.59,-0.44,-0.25
30.515137,10.41,-0.63,-1.14,0.68,-0.1,-0.12
30.588135,12.15,-0.57,-0.87,0.84,0.29,0.14
30.661133,13.06,-0.77,-7.36,1.46,-0.6,-0.36
30.73413,9.17,-2.54,-4.3,0.16,0.68,0.15
30.807129,7.71,-1.91,-4.42,0.68,0.03,0.24
30.880127,7.06,-0.1,-3.38,0.83,-0.03,-0.28
30.953125,7.57,-0.36,-2.68,0.32,-0.1,-0.16
31.026123,9.53,-1.11,-2.63,-0.38,-0.19,-0.01
31.099121,8.96,-1.07,-1.27,-0.61,0.3,0.02
31.17212,9.99,-1.69,-0.68,-0.63,0.38,-0.14
31.245117,12.51,-3.11,-4.16,-0.34,0.05,-0.08
31.318115,11.66,-0.79,-6.07,0.01,0.29,0.08
31.391113,9.01,-1.57,-4.31,0.29,0.16,-0.08
31.464111,6.91,-1.47,-3.24,0.4,0.13,0.11
31.53711,6.31,-0.86,-3.11,0.79,-0.3,-0.15
31.610107,8.62,-0.59,-3.01,0.88,-0.5,-0.28
31.683105,9.86,-1.79,-0.99,0.97,-0.04,-0.07
31.756104,10.65,-0.85,-1.9,1.31,0.08,0
31.829102,12.88,-1.41,-3.56,1.97,-0.32,-0.55
31.9021,10.22,-2.74,-5.42,0.46,0.1,-0.01
31.975098,8.43,-3.34,-4.6,0.6,0.17,0.28
32.048096,7.05,-0.33,-3.5,1.11,-0.3,-0.68
32.121094,6.36,0.24,-2.79,0.24,0.16,-0.18
32.19409,8.85,-1.39,-2.97,-0.5,-0.08,0.1
32.26709,9.81,-2.22,-1.35,-0.69,0.24,0.09
32.340088,9.55,-1.1,-0.84,-0.22,0.3,-0.39
32.413086,11.34,-1.51,-0.64,-0.38,0.71,-0.27
32.486084,11.62,-1.27,-8.45,-0.45,-0.25,0.21
32.559082,9.99,-1.64,-3.26,-0.14,0.33,0.13
32.63208,9.26,-1.71,-3.58,0.4,-0.04,-0.02
32.70508,6.23,-1.02,-2.44,0.67,-0.03,-0.04
32.778076,8.47,0.69,-3.41,1.04,-0.51,-0.17
32.851074,8.59,0.4,-1.39,0.77,0.07,-0.09
32.924072,9.29,-0.69,-1.61,0.58,0.1,0.25
32.99707,12.09,-0.99,-0.51,0.61,0.53,0.42
33.07007,13.33,1.24,-9.14,0.39,-0.64,-0.17
33.143066,9.53,-1.06,-3.49,-0.91,0.77,-0.14
33.216064,7.88,1.1,-4.99,-0.99,0.16,-0.45
33.289062,6.67,0.56,-4.39,-1.58,0.39,0.05
33.36206,9.05,-0.39,-4.58,-2.31,0.07,0.41
33.43506,8.49,-1.6,-3.45,-2.64,0.26,0.66
33.508057,9.5,-1.8,-1.86,-2.19,0.19,0.53
33.581055,9.47,-0.28,-1.82,-1.62,0.24,0.12
33.654053,9.93,-0.42,-1.13,-1.22,0.4,-0.19
33.72705,13.11,0.57,-7.35,-1.17,-0.33,-0.21
33.80005,8.2,0.27,-4.12,-1.64,0.22,0.08
33.873047,9.95,-0.22,-3.67,-0.91,-0.33,-0.04
33.946045,6.51,0.26,-2.58,-0.77,0.05,-0.05
34.019043,8.17,1.7,-3.44,-0.1,-0.38,-0.06
34.09204,9.96,1.55,-3.31,-0.23,-0.39,0.03
34.16504,9.02,0.45,-2.29,-0.29,0.07,0.28
34.238037,9.49,-0.08,-2.44,-0.17,0.14,0.62
34.311035,12.15,0.22,-1.41,0.32,0.05,0.34
34.384033,12.05,-0.44,-3.76,0.83,0.38,0.14
34.45703,8.83,1.22,-7.04,0.19,0.08,0.1
34.53003,8.13,-0.83,-3.73,-0.34,0.09,0.05
34.603027,8.59,-0.76,-4.4,-0.68,0.32,0.17
34.676025,7.09,-1.37,-3.43,-0.92,0.31,0.27
34.749023,8.9,-1.72,-2.93,-0.96,0.03,0.31
34.82202,8.98,-1.26,-2.2,-0.91,0.06,0.14
34.89502,9.81,-0.53,-1.59,-0.62,0.13,-0.05
34.968018,10.89,-1.41,-0.53,-0.62,0.43,-0.3
35.041016,12.79,-2.34,-5.01,-0.1,0.04,-0.27
35.114014,10.18,0.44,-6.45,-0.19,0.58,0.08
35.18701,8.32,-0.74,-3.79,0.07,0.04,-0.14
35.26001,7.73,-1.02,-3.35,-0.14,0.09,0.16
35.333008,6.6,-0.69,-2.48,0.13,-0.02,0.12
35.406006,8.94,0.65,-3.13,0.64,-0.34,-0.09
35.479004,9.71,-0.94,-1.34,0.49,-0.07,0.08
35.552002,11.23,-1.01,-1.52,0.5,0.04,0.41
35.625,12.47,-1.44,-2.46,1.42,0.1,-0.26
35.697998,10.26,-0.56,-7.11,0.7,0.02,-0.16
35.770996,9.07,-3.39,-3.97,0.18,0.19,0.04
35.843994,8.91,-1.18,-3.92,0.69,-0.07,-0.51
35.917236,5.81,-0.22,-2.64,0.12,0.24,-0.26
35.990234,7.25,-1.28,-2.15,-0.45,0.09,0.13
36.063232,9.76,-1.85,-1.61,-0.58,-0.09,0.05
36.13623,9.81,-1.1,-0.62,-0.28,0.33,-0.28
36.20923,10.94,-0.94,0.39,-0.31,0.42,-0.37
36.282227,12.22,-1.71,-4.53,0.15,0.14,-0.34
36.355225,10.59,-0.72,-5.11,-0.64,0.38,0.28
36.428223,8.85,-1.54,-3.47,0.02,-0.14,0.02
36.50122,7.26,-1.27,-2.97,0.33,-0.28,-0.02
36.57422,6.62,-0.58,-2.55,0.51,-0.45,0.06
36.647217,9.04,0.67,-3.13,0.86,-0.38,-0.2
36.720215,9.72,-0.43,-0.92,0.93,-0.12,-0.22
36.793213,11.21,-0.68,-1.87,0.78,0.08,0.21
36.86621,12.79,-2.22,-1.42,1.65,0.26,-0.27
36.93921,10.36,-0.44,-7.82,0.95,-0.09,-0.1
37.012207,8.17,-1.35,-4.39,0.44,0.11,-0.07
37.085205,8.39,-0.04,-3.84,0.26,-0.09,-0.26
37.158203,6.15,-0.75,-2.69,-0.27,0.23,-0.04
37.2312,8.53,-1.73,-2.69,-0.55,-0.04,0.23
37.3042,9.72,-2.03,-1.62,-0.49,0.05,0.1
37.377197,10.15,-1.8,-0.83,-0.08,0.15,-0.21
37.450195,11.4,-1.42,-0.02,-0.03,0.57,-0.29
37.523193,12.31,-0.8,-6.98,0.5,-0.11,-0.43
37.59619,9.17,-0.33,-4.84,-0.21,0.41,0.04
37.66919,8.62,-1.46,-3.73,0.02,-0.06,0.14
37.742188,6.97,-1.03,-2.96,0.32,0.03,0.05
37.815186,7.48,0.17,-2.73,0.86,-0.25,-0.08
37.888184,9.17,0.11,-2.28,0.86,-0.25,-0.09
37.96118,9.94,-1.43,-1.4,0.84,-0.1,0.17
38.03418,11.48,-0.42,-1.46,1.1,0.16,0.1
38.107178,11.23,-1.86,-2.99,1.83,0.03,-0.51
38.180176,9.57,-1.24,-6.54,0.71,0.03,-0.03
38.253174,10.09,-3.17,-3.23,0.55,-0.17,-0.12
38.32617,7.94,-0.69,-3.3,0.59,-0.02,-0.57
38.39917,6.24,-0.8,-1.58,0.3,0.33,-0.28
38.472168,7.35,-1.22,-2.14,-0.02,-0.02,-0.11
38.545166,8.36,-1.35,-1.02,-0.03,0.17,-0.15
38.618164,9.15,-0.5,-0.54,0.28,-0.01,-0.42
38.691162,10.74,-1.29,-0.37,-0.16,0.29,-0.07
38.76416,16.08,-1.29,-4.94,-0.09,-0.37,0.34
38.83716,9.73,-0.43,-4.81,0.17,0.43,-0.05
38.910156,9.02,0.48,-3.96,0.34,-0.28,-0.08
38.983154,7.4,0.16,-3.03,-0.21,-0.14,0.09
39.056152,7.84,-0.35,-2.24,0,-0.11,0.23
39.12915,8.68,0.27,-2.14,0.42,-0.08,0.05
39.20215,9.39,-0.67,-1.3,0.56,-0.04,0.14
39.275146,11.81,-0.69,-0.86,0.53,0.19,0.38
39.348145,12.4,-2.11,-4.66,1.23,-0.21,-0.06
39.421143,9.17,-0.16,-6.28,0.19,0.19,0.1
39.49414,9.11,-0.84,-3.94,0.15,-0.27,-0.11
39.56714,7.6,-0.17,-4.05,-0.39,-0.1,-0.16
39.640137,7.49,-1.59,-2.48,-0.92,0.08,0.24
39.713135,8.41,-1.76,-2.21,-0.88,-0.06,0.22
39.786133,9.17,-0.65,-1.37,-0.65,0.28,0.06
39.85913,11.03,-0.7,-0.95,-0.62,0.38,-0.22
39.93213,12.57,-0.86,-6.21,-0.16,0.22,-0.47
40.005127,10.17,0.59,-5.93,-0.94,0.35,0.04
40.078125,9.2,-1.26,-3.82,-0.58,-0.13,-0.01
40.151123,7.2,-1.1,-3.63,-0.68,0.05,0.29
40.22412,7.02,-0.29,-2.29,0.04,-0.18,0.13
40.29712,8.56,0.92,-2.55,0.52,-0.23,-0.16
40.370117,9.4,-0.51,-0.93,0.48,0.15,0.08
40.443115,11.72,-1.02,-1.49,0.63,0.13,0.34
40.516113,14.18,0.14,-8.3,1.17,-0.68,-0.36
40.58911,7.28,-1.12,-4.61,-0.34,0.79,-0.07
40.66211,9.79,0.22,-4.67,0.15,-0.07,-0.16
40.735107,6.49,-0.55,-3.45,-0.56,0.42,-0.06
40.808105,7.41,-1.12,-2.66,-0.79,0.39,0.26
40.881104,8.75,-0.8,-2.49,-0.92,-0.07,0.21
40.9541,10.26,-0.24,-1.33,-0.92,0.1,0.1
41.0271,11.25,-0.79,-0.24,-0.97,0.4,-0.06
41.100098,11.49,-1.57,-3.6,-0.41,0.29,-0.12
41.173096,10.94,0.29,-6.49,-0.75,-0.22,0.24
41.246094,8.44,0.48,-3.98,-0.55,0.13,-0.01
41.31909,7.81,-0.42,-3.86,-0.44,-0.07,-0.01
41.39209,6.88,-0.48,-2.39,-0.12,0.09,0.08
41.465088,8.6,0.88,-3.18,0.47,-0.36,-0.22
41.538086,9.65,-0.05,-1.33,0.36,-0.12,-0.01
41.611084,10.1,-0.61,-1.92,0.25,-0.11,0.34
41.684082,12.05,0.04,-0.52,0.72,0.1,0.22
41.75708,10.43,-0.38,-7.46,1.02,0.02,0.25
41.83008,10.06,0.11,-7.82,-0.46,0.18,0.22
41.903076,9.02,-1.09,-3.89,-0.6,0.04,-0.13
41.976074,6.3,-0.96,-4.18,-1.33,0.33,0.12
42.049072,7.73,-1.49,-3.43,-1.39,0.26,0.45
42.12207,8.85,-2.33,-3.03,-1.17,-0.07,0.15
42.19507,9.39,-2.07,-1.32,-0.74,0.17,0.05
42.268066,10.06,-2.5,-1.84,-0.3,0.08,0.02
42.341064,11.75,-1.65,0.2,0.23,0.66,-0.2
42.414062,11.44,-1.2,-6.41,0.9,0.39,-0.45
42.48706,8.13,0.95,-6.24,-0.14,0.32,-0.07
42.56006,9.14,-1.01,-3.09,0.43,-0.56,-0.15
42.633057,7.77,-0.65,-3.79,0.3,-0.21,0
42.706055,7.27,-0.08,-3.03,0.93,-0.49,-0.17
42.779053,9.34,1.07,-3.3,0.99,-0.47,-0.27
42.85205,10.12,-0.43,-1.15,0.79,0.03,-0.05
42.92505,11.39,-0.37,-1.71,0.75,0.38,0.11
42.998047,12.43,-1.2,-4.82,1.38,0.08,-0.26
43.071045,9.75,-0.6,-6.47,0.04,0.53,0.02
43.144043,9.54,-1.93,-3.82,0.04,0.18,0.03
43.21704,7.64,-0.25,-4.24,0.13,-0.02,-0.45
43.29004,6.05,-0.86,-2.64,-0.4,0.06,0.03
43.363037,8.29,-1.17,-3.23,-0.74,-0.31,0.23
43.436035,9.45,-1.16,-2.37,-0.94,0.05,0.23
43.509033,11,-1.23,-1.82,-0.75,0.23,-0.13
43.58203,11.54,-1.91,-0.27,-0.59,0.78,-0.29
43.65503,11.75,-2.26,-5.74,-0.02,0.05,-0.1
43.728027,9.26,0.3,-5.67,0.12,0.4,0.07
43.801025,9.04,-0.63,-3.77,0.5,-0.21,-0.13
43.874023,7.05,-1.23,-2.75,0.37,0.1,0.08
43.94702,6.79,-0.65,-3.22,0.96,-0.22,-0.03
44.02002,9.55,0.67,-3.22,1.21,-0.39,-0.25
44.093018,9.54,-0.22,-1.33,1.17,-0.16,-0.31
44.166016,10.17,-0.45,-1.94,0.83,0.07,0.18
44.239014,12.49,-0.99,0.25,1.22,0.18,-0.08
44.31201,11.44,-1.45,-7.14,1.46,-0.39,-0.07
44.38501,8.88,-1.96,-5.54,0.18,0.36,0.11
44.458008,8.71,-2.05,-3.33,0.53,-0.21,-0.11
44.531006,6.64,-0.69,-3.59,0.38,-0.01,-0.42
44.604004,7.49,-1.6,-2.43,-0.03,0.03,0.1
44.677002,9.4,-2.33,-2.51,-0.17,-0.26,0.04
44.75,10.17,-1.6,-1.09,0.05,0.11,-0.23
44.822998,10.45,-0.77,-1.22,0.04,0.31,-0.47
44.895996,11.05,-1.69,-1.18,0.39,0.78,-0.66
44.968994,10.98,-1.1,-7.39,-0.16,0.01,-0.02
45.042236,8.75,-1.29,-3.52,0.09,0.02,-0.11
45.115234,8.56,-1.37,-3.39,0.43,-0.2,-0.01
45.188232,6.74,-0.35,-3.33,0.61,-0.29,-0.08
45.26123,8.58,0.93,-3.37,0.9,-0.27,-0.1
45.33423,9.26,0.2,-1.61,0.91,-0.16,-0.12
45.407227,10.41,-0.52,-1.89,0.83,-0.05,0.11
45.480225,12.11,0.02,-0.1,1.14,0.44,-0.01
45.553223,11.38,-1.44,-7.37,1.39,-0.36,-0.16
45.62622,8.4,-1.69,-5.33,0.03,0.65,0.28
45.69922,9.91,-0.68,-4.12,0.56,-0.2,-0.19
45.772217,7.26,-0.44,-3.97,-0.1,0.15,-0.3
45.845215,7.6,-1.28,-2.57,-0.67,0.3,0.29
45.918213,8.02,-1.15,-2.46,-0.64,-0.04,0.11
45.99121,9.17,-0.39,-1.71,-0.59,0.13,0.03
46.06421,10.72,-0.82,-1.16,-0.72,0.15,-0.04
46.137207,11.91,-2.06,-2.24,-0.47,0.46,-0.1
46.210205,11.52,-0.54,-6.36,-0.17,-0.02,0.01
46.283203,8.33,0.33,-4.68,-0.2,0.01,-0.09
46.3562,9.23,-0.24,-3.33,-0.38,-0.07,0.2
46.4292,6.18,-0.58,-2.43,-0.53,0.12,0.18
46.502197,8.36,0.25,-2.95,-0.05,-0.22,0.15
46.575195,10.01,0.56,-2.41,-0.23,-0.13,0.13
46.648193,10.2,-0.71,-1.16,-0.15,0.24,0.27
46.72119,11.07,-1.27,-0.93,0.31,0.47,0.32
46.79419,12.19,-0.95,-7.42,0.85,-0.39,0.12
46.867188,8.68,-0.37,-5.88,-0.22,0.21,-0.12
46.940186,10.18,-0.86,-3.72,-0.31,0.04,0.04
47.013184,6.75,-0.67,-4.52,-1.02,0.27,0.03
47.08618,7.31,-1.82,-2.94,-1.44,0.29,0.47
47.15918,9.32,-1.48,-3.49,-1.34,-0.2,0.21
47.232178,9.81,-1.24,-2.62,-1.31,0.05,0.16
47.305176,9,-0.46,-2.03,-1.21,0.24,0.1
47.378174,10.61,-0.33,-1.26,-1.19,0.53,-0.07
47.45117,11.91,-1.42,-7.15,-1.11,0.12,-0.13
47.52417,10.34,-0.11,-6.11,-1.39,0.24,0.14
47.597168,7.73,0.75,-4.54,-0.74,-0.17,-0.21
47.670166,8.57,0.22,-4.22,-0.98,-0.18,0.12
47.743164,6.66,-0.1,-2.98,-0.84,-0.04,0.18
47.816162,8.97,0.45,-3.89,-0.29,-0.24,0.17
47.88916,9.13,0.27,-3.01,-0.07,-0.06,0.06
47.96216,9.13,0.14,-3.13,0.17,0.04,0.15
48.035156,9.73,-0.27,-2.35,0.36,0.14,0.19
48.108154,10.07,-0.5,-2.3,0.59,0.26,0.26
48.181152,11.5,-0.71,-2.39,0.96,0.32,0.07
48.25415,10.98,0.18,-7.66,0.81,-0.2,-0.19
48.32715,7.41,-0.76,-4.55,-0.1,0.35,-0.18
48.400146,10.12,-0.44,-4.57,-0.35,0.1,0.03
48.473145,7.02,-0.82,-3.29,-0.9,0.41,0.05
48.546143,8.01,-1.27,-2.93,-0.92,0.14,0.21
48.61914,9.05,-1.14,-2.82,-1,0.08,0.17
48.69214,9.73,-1.06,-1.56,-0.71,0.28,-0.11
48.765137,9.71,-1.08,-1.75,-0.69,0.41,-0.21
48.838135,10.95,-1.61,-1.85,-0.41,0.77,-0.19
48.911133,12.49,0.55,-7.98,-0.13,-0.26,-0.31
48.98413,7.62,0.59,-3.24,-0.46,0.19,-0.09
49.05713,9.75,0.78,-4.16,0.02,-0.18,-0.16
49.130127,6.65,0.27,-2.03,0.02,0.13,-0.19
49.203125,7.9,0.83,-3,0.36,-0.12,0.04
49.276123,10.63,1.2,-2.43,0.5,-0.23,0
49.34912,8.75,0.19,-1.63,0.57,0.09,0.08
49.42212,9.71,0.2,-1.99,0.69,0.01,0.32
49.495117,11.46,1.16,-1.74,0.95,-0.11,0.04
49.568115,11.98,0.79,-5.23,0.93,-0.35,-0.13
49.641113,10.04,-2.3,-4.87,0.11,0.25,0.22
49.71411,8.2,-2.25,-4.51,0.04,0.2,0.55
49.78711,9.27,-1.2,-4.06,0.48,-0.17,-0.16
49.860107,6.13,-1.33,-2.67,-0.07,0.33,0.04
49.933105,8.07,-1.65,-2.65,0.09,0.02,0.14
50.006104,9.94,-1.18,-2.93,0.05,-0.2,-0.14
50.0791,9.12,-0.97,-1.68,-0.08,0.04,-0.3
50.1521,10.03,-0.76,-1.53,-0.33,0.24,-0.27
50.225098,11.19,-1.27,-0.82,-0.53,0.57,-0.25
50.298096,11.27,-2.09,-3.78,-0.04,0.51,-0.45
50.371094,10.85,0.84,-7.03,-0.81,0.15,0.1
